filename	pic_num	training_loop.thisRepN	training_loop.thisTrialN	training_loop.thisN	training_loop.thisIndex	trials_2.thisRepN	trials_2.thisTrialN	trials_2.thisN	trials_2.thisIndex	trials.thisRepN	trials.thisTrialN	trials.thisN	trials.thisIndex	thisRow.t	notes	intro_text.started	intro_click.started	intro_click.x	intro_click.y	intro_click.leftButton	intro_click.midButton	intro_click.rightButton	intro_click.time	show_images.started	image0_name	image0_position	image1_name	image1_position	image2_name	image2_position	image3_name	image3_position	image4_name	image4_position	image5_name	image5_position	image6_name	image6_position	image7_name	image7_position	image8_name	image8_position	image9_name	image9_position	image10_name	image10_position	image11_name	image11_position	image12_name	image12_position	image0.started	image1.started	image2.started	image3.started	image4.started	image5.started	image6.started	image7.started	image8.started	image9.started	image10.started	image11.started	image12.started	show_images.stopped	blank_screen.started	blank_text.started	blank_text.stopped	blank_screen.stopped	show_images_changed.started	correct_image	correct_image_name	correct_image_pos	image0_2.started	image1_2.started	image2_2.started	image3_2.started	image4_2.started	image5_2.started	image6_2.started	image7_2.started	image8_2.started	image9_2.started	image10_2.started	image11_2.started	image12_2.started	mouse.started	show_images_changed.stopped	is_correct	mouse.x	mouse.y	mouse.leftButton	mouse.midButton	mouse.rightButton	mouse.time	mouse.clicked_name	mouse.clicked_image	feedback.started	feedback_text.started	feedback.stopped	feedback_text.stopped	begin_real_trial.started	text.started	begin_real_trial.stopped	so_long_and_thanks_for_all_the_fish.started	goodbye_text.started	goodbye_click.started	so_long_and_thanks_for_all_the_fish.stopped	goodbye_click.x	goodbye_click.y	goodbye_click.leftButton	goodbye_click.midButton	goodbye_click.rightButton	goodbye_click.time	id	age	date	expName	psychopyVersion	frameRate	expStart	
./R1_visual_memory_2024-05-03_17h56.42.992.csv																0.0403379169292748	0.013569208094850183	[0.03194444444444444]	[0.46]	[1]	[0]	[0]	[25.60377712501213]																																																																																											Adrian	34	2024-05-03_17h56.42.992	visual_memory	2023.2.3	None	2024-05-03 17h57.06.248961 +0200	
./R1_visual_memory_2024-05-03_17h56.42.992.csv														99.64964095898904										99.26750208390877	letra.png	[-0.75, -0.75]	ora.png	[-0.25, -0.75]	hajszarito.png	[-0.75, -0.25]	kad.png	[-0.25, -0.25]	esernyo.png	[0.75, 0.25]	blank.png	[2, 2]	blank.png	[2, 2]	blank.png	[2, 2]	blank.png	[2, 2]	blank.png	[2, 2]	blank.png	[2, 2]	blank.png	[2, 2]	blank.png	[2, 2]	99.64964095898904	99.64964095898904	99.64964095898904	99.64964095898904	99.64964095898904	99.64964095898904	99.64964095898904	99.64964095898904	99.64964095898904	99.64964095898904	99.64964095898904	99.64964095898904	99.64964095898904	109.26717895898037	109.26720341690816	109.27650341694243	110.1505003341008	109.777176334057	109.77719695889391	image4_2	ceruza.png	[0.75, 0.25]	111.28152874996886	111.28152874996886	111.28152874996886	111.28152874996886	111.28152874996886	111.28152874996886	111.28152874996886	111.28152874996886	111.28152874996886	111.28152874996886	111.28152874996886	111.28152874996886	111.28152874996886	0.014579333132132888	117.51950337504968	True	[0.7986111111111112]	[0.29333333333333333]	[1]	[0]	[0]	[6.237283125054091]	['image4_2']	['ceruza.png']	117.5201767499093	117.52609887509607	119.52700387500226	99.64964095898904	119.52706441702321	119.53483087499626	125.21902116690762											Adrian	34	2024-05-03_17h56.42.992	visual_memory	2023.2.3	None	2024-05-03 17h57.06.248961 +0200	
./R1_visual_memory_2024-05-03_17h56.42.992.csv	5					0	0	0	0	0	0	0	0	125.61315787490457										125.2333014588803	esernyo.png	[-0.25, -0.25]	fotel.png	[-0.75, 0.75]	vodor.png	[0.75, 0.75]	fagyi.png	[0.25, 0.75]	alma.png	[0.75, -0.25]	blank.png	[2, 2]	blank.png	[2, 2]	blank.png	[2, 2]	blank.png	[2, 2]	blank.png	[2, 2]	blank.png	[2, 2]	blank.png	[2, 2]	blank.png	[2, 2]	125.61315787490457	125.61315787490457	125.61315787490457	125.61315787490457	125.61315787490457	125.61315787490457	125.61315787490457	125.61315787490457	125.61315787490457	125.61315787490457	125.61315787490457	125.61315787490457	125.61315787490457	135.2171150839422	140.20447187498212	140.2103287500795	141.08699274994433	140.71126916701905	135.72784554190002	image4_2	ollo.png	[0.75, -0.25]	137.2307487090584	137.2307487090584	137.2307487090584	137.2307487090584	137.2307487090584	137.2307487090584	137.2307487090584	137.2307487090584	137.2307487090584	137.2307487090584	137.2307487090584	137.2307487090584	137.2307487090584	0.013850833056494594	140.20343225006945	True	[0.7861111111111111]	[-0.3466666666666667]	[1]	[0]	[0]	[2.9720471249893308]	['image4_2']	['ollo.png']																		Adrian	34	2024-05-03_17h56.42.992	visual_memory	2023.2.3	None	2024-05-03 17h57.06.248961 +0200	
./R1_visual_memory_2024-05-03_17h56.42.992.csv	5					0	0	0	0	1	0	1	0	141.08699274994433										140.71170524996705	letra.png	[-0.25, -0.75]	vodor.png	[-0.25, 0.25]	bogre.png	[-0.25, -0.25]	fogas.png	[0.25, -0.25]	kad.png	[0.75, 0.25]	blank.png	[2, 2]	blank.png	[2, 2]	blank.png	[2, 2]	blank.png	[2, 2]	blank.png	[2, 2]	blank.png	[2, 2]	blank.png	[2, 2]	blank.png	[2, 2]	142.21889250003733	142.21889250003733	142.21889250003733	142.21889250003733	142.21889250003733	142.21889250003733	142.21889250003733	142.21889250003733	142.21889250003733	142.21889250003733	142.21889250003733	142.21889250003733	142.21889250003733	152.20218916703016	157.65551512502134	157.66117733391002	158.5322072498966	158.1617378750816	152.71166995889507	image4_2	fotel.png	[0.75, 0.25]	154.21523929201066	154.21523929201066	154.21523929201066	154.21523929201066	154.21523929201066	154.21523929201066	154.21523929201066	154.21523929201066	154.21523929201066	154.21523929201066	154.21523929201066	154.21523929201066	154.21523929201066	0.013297999976202846	157.6548373750411	True	[0.6680555555555555]	[0.27111111111111114]	[1]	[0]	[0]	[3.438937250059098]	['image4_2']	['fotel.png']																		Adrian	34	2024-05-03_17h56.42.992	visual_memory	2023.2.3	None	2024-05-03 17h57.06.248961 +0200	
./R1_visual_memory_2024-05-03_17h56.42.992.csv	5					0	0	0	0	2	0	2	0	158.5322072498966										158.16217262507416	hajszarito.png	[0.75, -0.75]	vodor.png	[-0.25, 0.25]	ora.png	[0.75, 0.75]	szemuveg.png	[-0.75, -0.25]	ollo.png	[-0.25, -0.25]	blank.png	[2, 2]	blank.png	[2, 2]	blank.png	[2, 2]	blank.png	[2, 2]	blank.png	[2, 2]	blank.png	[2, 2]	blank.png	[2, 2]	blank.png	[2, 2]	159.66933308402076	159.66933308402076	159.66933308402076	159.66933308402076	159.66933308402076	159.66933308402076	159.66933308402076	159.66933308402076	159.66933308402076	159.66933308402076	159.66933308402076	159.66933308402076	159.66933308402076	169.6514479999896	175.07257000007667	175.0783936250955	175.9562104169745	175.57900366699323	170.16193900001235	image4_2	zokni.png	[-0.25, -0.25]	171.66677529201843	171.66677529201843	171.66677529201843	171.66677529201843	171.66677529201843	171.66677529201843	171.66677529201843	171.66677529201843	171.66677529201843	171.66677529201843	171.66677529201843	171.66677529201843	171.66677529201843	0.015533207915723324	175.07187483389862	True	[-0.25416666666666665]	[-0.3422222222222222]	[1]	[0]	[0]	[3.40446054097265]	['image4_2']	['zokni.png']																		Adrian	34	2024-05-03_17h56.42.992	visual_memory	2023.2.3	None	2024-05-03 17h57.06.248961 +0200	
./R1_visual_memory_2024-05-03_17h56.42.992.csv	5					0	0	0	0	3	0	3	0	175.9562104169745										175.57943637506105	szemuveg.png	[-0.25, 0.25]	bogre.png	[0.75, -0.75]	vodor.png	[0.75, 0.75]	macko.png	[0.75, -0.25]	fogas.png	[0.25, -0.25]	blank.png	[2, 2]	blank.png	[2, 2]	blank.png	[2, 2]	blank.png	[2, 2]	blank.png	[2, 2]	blank.png	[2, 2]	blank.png	[2, 2]	blank.png	[2, 2]	177.08550770906731	177.08550770906731	177.08550770906731	177.08550770906731	177.08550770906731	177.08550770906731	177.08550770906731	177.08550770906731	177.08550770906731	177.08550770906731	177.08550770906731	177.08550770906731	177.08550770906731	187.06876979209483	193.8730995838996	193.87872220901772	194.75433633406647	194.37946549989283	187.57943270890974	image4_2	ora.png	[0.25, -0.25]	189.08282725000754	189.08282725000754	189.08282725000754	189.08282725000754	189.08282725000754	189.08282725000754	189.08282725000754	189.08282725000754	189.08282725000754	189.08282725000754	189.08282725000754	189.08282725000754	189.08282725000754	0.01426891703158617	193.87246212502941	True	[0.35833333333333334]	[-0.2311111111111111]	[1]	[0]	[0]	[4.788998665986583]	['image4_2']	['ora.png']																		Adrian	34	2024-05-03_17h56.42.992	visual_memory	2023.2.3	None	2024-05-03 17h57.06.248961 +0200	
./R1_visual_memory_2024-05-03_17h56.42.992.csv	5					0	0	0	0	4	0	4	0	194.75433633406647										194.37989691691473	ollo.png	[0.25, -0.25]	ceruza.png	[-0.75, -0.75]	hajszarito.png	[0.75, -0.75]	esernyo.png	[-0.25, 0.75]	zokni.png	[0.25, -0.75]	blank.png	[2, 2]	blank.png	[2, 2]	blank.png	[2, 2]	blank.png	[2, 2]	blank.png	[2, 2]	blank.png	[2, 2]	blank.png	[2, 2]	blank.png	[2, 2]	195.8862631248776	195.8862631248776	195.8862631248776	195.8862631248776	195.8862631248776	195.8862631248776	195.8862631248776	195.8862631248776	195.8862631248776	195.8862631248776	195.8862631248776	195.8862631248776	195.8862631248776	205.86937233409844	211.10715379193425	211.11310991691425	212.29698387510143	211.61328712501563	206.379769125022	image4_2	szemuveg.png	[0.25, -0.75]	207.88395074987784	207.88395074987784	207.88395074987784	207.88395074987784	207.88395074987784	207.88395074987784	207.88395074987784	207.88395074987784	207.88395074987784	207.88395074987784	207.88395074987784	207.88395074987784	207.88395074987784	0.014824541052803397	211.10650662495755	True	[0.32083333333333336]	[-0.74]	[1]	[0]	[0]	[3.2218719171360135]	['image4_2']	['szemuveg.png']																		Adrian	34	2024-05-03_17h56.42.992	visual_memory	2023.2.3	None	2024-05-03 17h57.06.248961 +0200	
./R1_visual_memory_2024-05-03_17h56.42.992.csv	5					0	0	0	0																																																																																																									Adrian	34	2024-05-03_17h56.42.992	visual_memory	2023.2.3	None	2024-05-03 17h57.06.248961 +0200	
./R1_visual_memory_2024-05-03_17h56.42.992.csv	9					0	1	1	1	0	0	0	0	212.29698387510143										211.6145639170427	zokni.png	[-0.25, -0.25]	esernyo.png	[0.25, 0.75]	kamera.png	[0.25, -0.75]	fotel.png	[-0.75, 0.75]	laptop.png	[0.75, -0.75]	papucs.png	[-0.25, -0.75]	ora.png	[-0.75, 0.25]	kad.png	[0.25, 0.25]	letra.png	[-0.25, 0.75]	blank.png	[2, 2]	blank.png	[2, 2]	blank.png	[2, 2]	blank.png	[2, 2]	213.12253675004467	213.12253675004467	213.12253675004467	213.12253675004467	213.12253675004467	213.12253675004467	213.12253675004467	213.12253675004467	213.12253675004467	213.12253675004467	213.12253675004467	213.12253675004467	213.12253675004467	223.1072796669323	229.05938812508248	229.0654979168903	230.2237031669356	229.5637389589101	223.6137332499493	image8_2	macko.png	[-0.25, 0.75]	225.12194904196076	225.12194904196076	225.12194904196076	225.12194904196076	225.12194904196076	225.12194904196076	225.12194904196076	225.12194904196076	225.12194904196076	225.12194904196076	225.12194904196076	225.12194904196076	225.12194904196076	0.014853290980681777	229.0583772920072	True	[-0.25277777777777777]	[0.8155555555555556]	[1]	[0]	[0]	[3.935827041976154]	['image8_2']	['macko.png']																		Adrian	34	2024-05-03_17h56.42.992	visual_memory	2023.2.3	None	2024-05-03 17h57.06.248961 +0200	
./R1_visual_memory_2024-05-03_17h56.42.992.csv	9					0	1	1	1	1	0	1	0	230.2237031669356										229.56418058392592	papucs.png	[0.75, 0.25]	bogre.png	[0.75, -0.25]	kamera.png	[0.25, 0.75]	fagyi.png	[-0.75, -0.25]	laptop.png	[0.25, -0.75]	auto.png	[-0.75, -0.75]	macko.png	[-0.25, 0.75]	ora.png	[0.25, -0.25]	fogas.png	[0.25, 0.25]	blank.png	[2, 2]	blank.png	[2, 2]	blank.png	[2, 2]	blank.png	[2, 2]	231.07238662499003	231.07238662499003	231.07238662499003	231.07238662499003	231.07238662499003	231.07238662499003	231.07238662499003	231.07238662499003	231.07238662499003	231.07238662499003	231.07238662499003	231.07238662499003	231.07238662499003	241.0586416251026	250.10106758400798	250.1141145839356	251.28299112501554	250.6144534589257	241.58090866706334	image8_2	szemuveg.png	[0.25, 0.25]	243.0720757090021	243.0720757090021	243.0720757090021	243.0720757090021	243.0720757090021	243.0720757090021	243.0720757090021	243.0720757090021	243.0720757090021	243.0720757090021	243.0720757090021	243.0720757090021	243.0720757090021	0.01361895794980228	250.1002277089283	False	[0.6888888888888889]	[-0.29555555555555557]	[1]	[0]	[0]	[7.027449874905869]	['image1_2']	['bogre.png']																		Adrian	34	2024-05-03_17h56.42.992	visual_memory	2023.2.3	None	2024-05-03 17h57.06.248961 +0200	
./R1_visual_memory_2024-05-03_17h56.42.992.csv	9					0	1	1	1	2	0	2	0	251.28299112501554										250.6150239589624	hajszarito.png	[0.25, -0.25]	esernyo.png	[-0.75, -0.25]	laptop.png	[0.75, -0.25]	ceruza.png	[-0.25, -0.75]	zokni.png	[-0.25, -0.25]	ollo.png	[0.75, 0.75]	bogre.png	[-0.75, -0.75]	vodor.png	[-0.75, 0.25]	ora.png	[0.25, 0.25]	blank.png	[2, 2]	blank.png	[2, 2]	blank.png	[2, 2]	blank.png	[2, 2]	252.11836704192683	252.11836704192683	252.11836704192683	252.11836704192683	252.11836704192683	252.11836704192683	252.11836704192683	252.11836704192683	252.11836704192683	252.11836704192683	252.11836704192683	252.11836704192683	252.11836704192683	262.09799150004983	275.66283049993217	275.66817541699857	276.8194797919132	276.1650207499042	262.59833220904693	image8_2	fotel.png	[0.25, 0.25]	264.11956608388573	264.11956608388573	264.11956608388573	264.11956608388573	264.11956608388573	264.11956608388573	264.11956608388573	264.11956608388573	264.11956608388573	264.11956608388573	264.11956608388573	264.11956608388573	264.11956608388573	-0.00010816683061420918	275.662116084015	False	[0.2902777777777778]	[-0.15777777777777777]	[1]	[0]	[0]	[11.563078291947022]	['image0_2']	['hajszarito.png']																		Adrian	34	2024-05-03_17h56.42.992	visual_memory	2023.2.3	None	2024-05-03 17h57.06.248961 +0200	
./R1_visual_memory_2024-05-03_17h56.42.992.csv	9					0	1	1	1	3	0	3	0	276.8194797919132										276.1654593748972	fotel.png	[-0.25, 0.75]	vodor.png	[0.75, -0.25]	ollo.png	[-0.75, -0.25]	ora.png	[0.75, 0.75]	zokni.png	[0.25, 0.25]	letra.png	[0.75, 0.25]	alma.png	[-0.75, 0.25]	papucs.png	[-0.75, 0.75]	macko.png	[-0.25, -0.25]	blank.png	[2, 2]	blank.png	[2, 2]	blank.png	[2, 2]	blank.png	[2, 2]	277.6852602090221	277.6852602090221	277.6852602090221	277.6852602090221	277.6852602090221	277.6852602090221	277.6852602090221	277.6852602090221	277.6852602090221	277.6852602090221	277.6852602090221	277.6852602090221	277.6852602090221	287.66030099987984	294.89531633397564	294.9010495839175	296.06416758405976	295.39869220904075	288.1653565419838	image8_2	ceruza.png	[-0.25, -0.25]	289.67443345906213	289.67443345906213	289.67443345906213	289.67443345906213	289.67443345906213	289.67443345906213	289.67443345906213	289.67443345906213	289.67443345906213	289.67443345906213	289.67443345906213	289.67443345906213	289.67443345906213	0.014348874799907207	294.89449504204094	False	[-0.7152777777777778]	[-0.30666666666666664]	[1]	[0]	[0]	[5.21924320794642]	['image2_2']	['ollo.png']																		Adrian	34	2024-05-03_17h56.42.992	visual_memory	2023.2.3	None	2024-05-03 17h57.06.248961 +0200	
./R1_visual_memory_2024-05-03_17h56.42.992.csv	9					0	1	1	1	4	0	4	0	296.06416758405976										295.39904341707006	alma.png	[0.75, -0.25]	ceruza.png	[-0.25, -0.25]	hajszarito.png	[-0.75, -0.75]	fagyi.png	[0.75, -0.75]	szemuveg.png	[0.25, -0.75]	auto.png	[-0.25, -0.75]	fogas.png	[-0.25, 0.75]	kamera.png	[-0.75, -0.25]	zokni.png	[0.75, 0.75]	blank.png	[2, 2]	blank.png	[2, 2]	blank.png	[2, 2]	blank.png	[2, 2]	296.9089873749763	296.9089873749763	296.9089873749763	296.9089873749763	296.9089873749763	296.9089873749763	296.9089873749763	296.9089873749763	296.9089873749763	296.9089873749763	296.9089873749763	296.9089873749763	296.9089873749763	306.8924487500917	315.7049690000713	315.71094629191794	317.1487630000338	316.2066669170745	307.39940620888956	image8_2	esernyo.png	[0.75, 0.75]	308.9074151250534	308.9074151250534	308.9074151250534	308.9074151250534	308.9074151250534	308.9074151250534	308.9074151250534	308.9074151250534	308.9074151250534	308.9074151250534	308.9074151250534	308.9074151250534	308.9074151250534	0.015176000073552132	315.70422570896335	True	[0.7430555555555556]	[0.7866666666666666]	[1]	[0]	[0]	[6.796131832990795]	['image8_2']	['esernyo.png']																		Adrian	34	2024-05-03_17h56.42.992	visual_memory	2023.2.3	None	2024-05-03 17h57.06.248961 +0200	
./R1_visual_memory_2024-05-03_17h56.42.992.csv	9					0	1	1	1																																																																																																									Adrian	34	2024-05-03_17h56.42.992	visual_memory	2023.2.3	None	2024-05-03 17h57.06.248961 +0200	
./R1_visual_memory_2024-05-03_17h56.42.992.csv	13					0	2	2	2	0	0	0	0	317.1487630000338										316.2084840419702	ollo.png	[0.25, -0.25]	macko.png	[-0.75, 0.75]	auto.png	[-0.25, -0.75]	fogas.png	[-0.75, 0.25]	letra.png	[-0.25, 0.75]	fotel.png	[0.25, 0.75]	ora.png	[0.75, 0.75]	fagyi.png	[-0.75, -0.25]	zokni.png	[0.25, -0.75]	ceruza.png	[0.75, -0.75]	kad.png	[0.25, 0.25]	bogre.png	[-0.75, -0.75]	kamera.png	[0.75, -0.25]	317.7223133340012	317.7223133340012	317.7223133340012	317.7223133340012	317.7223133340012	317.7223133340012	317.7223133340012	317.7223133340012	317.7223133340012	317.7223133340012	317.7223133340012	317.7223133340012	317.7223133340012	327.7000248339027	343.62345441710204	343.6290736668743	345.06618016702123	344.12380895903334	328.1998020838946	image12_2	hajszarito.png	[0.75, -0.25]	329.7225033750292	329.7225033750292	329.7225033750292	329.7225033750292	329.7225033750292	329.7225033750292	329.7225033750292	329.7225033750292	329.7225033750292	329.7225033750292	329.7225033750292	329.7225033750292	329.7225033750292	-0.00039849989116191864	343.62226795894094	False	[0.29583333333333334]	[-0.7066666666666667]	[1]	[0]	[0]	[13.921505708945915]	['image8_2']	['zokni.png']																		Adrian	34	2024-05-03_17h56.42.992	visual_memory	2023.2.3	None	2024-05-03 17h57.06.248961 +0200	
./R1_visual_memory_2024-05-03_17h56.42.992.csv	13					0	2	2	2	1	0	1	0	345.06618016702123										344.1242674170062	laptop.png	[-0.75, 0.75]	alma.png	[0.25, 0.75]	kad.png	[0.75, 0.25]	kamera.png	[0.75, 0.75]	hajszarito.png	[-0.25, 0.25]	fogas.png	[-0.25, -0.25]	papucs.png	[0.75, -0.75]	vodor.png	[0.25, -0.25]	zokni.png	[-0.75, -0.25]	szemuveg.png	[-0.25, -0.75]	ceruza.png	[-0.75, -0.75]	fagyi.png	[-0.25, 0.75]	ollo.png	[0.25, 0.25]	345.63884075009264	345.63884075009264	345.63884075009264	345.63884075009264	345.63884075009264	345.63884075009264	345.63884075009264	345.63884075009264	345.63884075009264	345.63884075009264	345.63884075009264	345.63884075009264	345.63884075009264	355.61900258390233	370.95972983399406	370.96686029201373	372.4105247920379	371.4675102920737	356.117221374996	image12_2	letra.png	[0.25, 0.25]	357.63978499989025	357.63978499989025	357.63978499989025	357.63978499989025	357.63978499989025	357.63978499989025	357.63978499989025	357.63978499989025	357.63978499989025	357.63978499989025	357.63978499989025	357.63978499989025	357.63978499989025	0.021005959017202258	370.9590597918723	False	[0.25]	[-0.19555555555555557]	[1]	[0]	[0]	[13.31861299998127]	['image7_2']	['vodor.png']																		Adrian	34	2024-05-03_17h56.42.992	visual_memory	2023.2.3	None	2024-05-03 17h57.06.248961 +0200	
./R1_visual_memory_2024-05-03_17h56.42.992.csv	13					0	2	2	2	2	0	2	0	372.4105247920379										371.46795708406717	papucs.png	[0.75, 0.75]	auto.png	[0.25, 0.25]	fagyi.png	[0.75, -0.25]	letra.png	[-0.25, 0.75]	alma.png	[-0.25, -0.25]	szemuveg.png	[0.25, 0.75]	vodor.png	[0.25, -0.75]	fotel.png	[-0.75, -0.25]	fogas.png	[-0.75, -0.75]	zokni.png	[0.75, -0.75]	kamera.png	[-0.75, 0.75]	ceruza.png	[-0.25, 0.25]	ora.png	[-0.75, 0.25]	372.9731017919257	372.9731017919257	372.9731017919257	372.9731017919257	372.9731017919257	372.9731017919257	372.9731017919257	372.9731017919257	372.9731017919257	372.9731017919257	372.9731017919257	372.9731017919257	372.9731017919257	382.96724191703834	396.2930500418879	396.2999954170082	397.7417010839563	396.801242708927	383.48447058396414	image12_2	macko.png	[-0.75, 0.25]	384.9920297919307	384.9920297919307	384.9920297919307	384.9920297919307	384.9920297919307	384.9920297919307	384.9920297919307	384.9920297919307	384.9920297919307	384.9920297919307	384.9920297919307	384.9920297919307	384.9920297919307	0.000641208840534091	396.29233270906843	True	[-0.7652777777777777]	[0.2088888888888889]	[1]	[0]	[0]	[11.322643833002076]	['image12_2']	['macko.png']																		Adrian	34	2024-05-03_17h56.42.992	visual_memory	2023.2.3	None	2024-05-03 17h57.06.248961 +0200	
./R1_visual_memory_2024-05-03_17h56.42.992.csv	13					0	2	2	2	3	0	3	0	397.7417010839563										396.80166379199363	esernyo.png	[0.25, -0.75]	ceruza.png	[-0.25, 0.25]	macko.png	[-0.75, 0.25]	auto.png	[-0.75, -0.25]	bogre.png	[0.75, -0.25]	kamera.png	[0.25, -0.25]	hajszarito.png	[-0.75, 0.75]	letra.png	[-0.25, -0.25]	ollo.png	[0.25, 0.75]	szemuveg.png	[0.25, 0.25]	papucs.png	[-0.25, 0.75]	laptop.png	[0.75, -0.75]	kad.png	[-0.25, -0.75]	398.30662425002083	398.30662425002083	398.30662425002083	398.30662425002083	398.30662425002083	398.30662425002083	398.30662425002083	398.30662425002083	398.30662425002083	398.30662425002083	398.30662425002083	398.30662425002083	398.30662425002083	408.2845137498807	416.8173310419079	416.82332066702656	418.2492754170671	417.31867604190484	408.78504274995066	image12_2	zokni.png	[-0.25, -0.75]	410.30860658409074	410.30860658409074	410.30860658409074	410.30860658409074	410.30860658409074	410.30860658409074	410.30860658409074	410.30860658409074	410.30860658409074	410.30860658409074	410.30860658409074	410.30860658409074	410.30860658409074	0.0006258748471736908	416.81648449995555	False	[-0.2652777777777778]	[-0.24222222222222223]	[1]	[0]	[0]	[6.530107083031908]	['image7_2']	['letra.png']																		Adrian	34	2024-05-03_17h56.42.992	visual_memory	2023.2.3	None	2024-05-03 17h57.06.248961 +0200	
./R1_visual_memory_2024-05-03_17h56.42.992.csv	13					0	2	2	2	4	0	4	0	418.2492754170671										417.3191114589572	letra.png	[-0.75, -0.75]	bogre.png	[-0.75, 0.75]	kamera.png	[0.25, -0.75]	szemuveg.png	[-0.25, -0.25]	zokni.png	[-0.25, 0.25]	esernyo.png	[0.75, -0.25]	macko.png	[0.25, -0.25]	hajszarito.png	[-0.75, 0.25]	fagyi.png	[0.75, -0.75]	kad.png	[0.75, 0.25]	auto.png	[-0.25, -0.75]	laptop.png	[0.25, 0.75]	vodor.png	[-0.75, -0.25]	418.84008712507784	418.84008712507784	418.84008712507784	418.84008712507784	418.84008712507784	418.84008712507784	418.84008712507784	418.84008712507784	418.84008712507784	418.84008712507784	418.84008712507784	418.84008712507784	418.84008712507784	428.8090602499433	434.6440284589771	434.65089887497015	435.15203916700557	435.1422588340938	429.31898762495257	image12_2	ora.png	[-0.75, -0.25]	430.8248037500307	430.8248037500307	430.8248037500307	430.8248037500307	430.8248037500307	430.8248037500307	430.8248037500307	430.8248037500307	430.8248037500307	430.8248037500307	430.8248037500307	430.8248037500307	430.8248037500307	0.01595370890572667	434.64337754203007	True	[-0.7277777777777777]	[-0.26666666666666666]	[1]	[0]	[0]	[3.81788691598922]	['image12_2']	['ora.png']																		Adrian	34	2024-05-03_17h56.42.992	visual_memory	2023.2.3	None	2024-05-03 17h57.06.248961 +0200	
./R1_visual_memory_2024-05-03_17h56.42.992.csv	13					0	2	2	2																																																																																																									Adrian	34	2024-05-03_17h56.42.992	visual_memory	2023.2.3	None	2024-05-03 17h57.06.248961 +0200	
./R1_visual_memory_2024-05-03_17h56.42.992.csv																																																																																																								435.1424313338939	436.6443343339488	0.00039466586895287037	441.97840137500316	[-0.7277777777777777]	[-0.26666666666666666]	[1]	[0]	[0]	[5.333485875045881]	Adrian	34	2024-05-03_17h56.42.992	visual_memory	2023.2.3	None	2024-05-03 17h57.06.248961 +0200	
./PP03_visual_memory_2024-05-06_11h17.06.368.csv																0.06625789999998233	0.049519599999996444	[-0.11796875]	[0.17083333333333334]	[1]	[0]	[0]	[1.1867776999999933]																																																																																											PP03	38	2024-05-06_11h17.06.368	visual_memory	2023.2.3	59.93044472584828	2024-05-06 11h17.26.274238 +0200	
./PP03_visual_memory_2024-05-06_11h17.06.368.csv														70.44203590000001										70.09250409999999	vodor.png	[0.75, 0.75]	ora.png	[-0.75, 0.25]	bogre.png	[0.25, 0.25]	auto.png	[0.75, 0.25]	alma.png	[-0.25, -0.25]	blank.png	[2, 2]	blank.png	[2, 2]	blank.png	[2, 2]	blank.png	[2, 2]	blank.png	[2, 2]	blank.png	[2, 2]	blank.png	[2, 2]	blank.png	[2, 2]	70.44203590000001	70.44203590000001	70.44203590000001	70.44203590000001	70.44203590000001	70.44203590000001	70.44203590000001	70.44203590000001	70.44203590000001	70.44203590000001	70.44203590000001	70.44203590000001	70.44203590000001	80.08402189999998	80.0840432	80.10031549999997	81.03424689999997	80.58514329999997	80.58517869999997	image4_2	kad.png	[-0.25, -0.25]	82.08525679999997	82.08525679999997	82.08525679999997	82.08525679999997	82.08525679999997	82.08525679999997	82.08525679999997	82.08525679999997	82.08525679999997	82.08525679999997	82.08525679999997	82.08525679999997	82.08525679999997	0.0014001999999777581	83.7893871	True	[-0.2]	[-0.1486111111111111]	[1]	[0]	[0]	[1.7034741999999596]	['image4_2']	['kad.png']	83.79020170000001	83.80315939999997	85.78875019999998	85.8050394	85.78879219999999	85.8050394	86.58990169999998											PP03	38	2024-05-06_11h17.06.368	visual_memory	2023.2.3	59.93044472584828	2024-05-06 11h17.26.274238 +0200	
./PP03_visual_memory_2024-05-06_11h17.06.368.csv	5					0	0	0	0	0	0	0	0	86.93915679999998										86.60205809999997	zokni.png	[0.25, 0.25]	laptop.png	[-0.75, 0.75]	ora.png	[-0.25, -0.75]	alma.png	[-0.25, 0.75]	fogas.png	[-0.75, 0.25]	blank.png	[2, 2]	blank.png	[2, 2]	blank.png	[2, 2]	blank.png	[2, 2]	blank.png	[2, 2]	blank.png	[2, 2]	blank.png	[2, 2]	blank.png	[2, 2]	86.93915679999998	86.93915679999998	86.93915679999998	86.93915679999998	86.93915679999998	86.93915679999998	86.93915679999998	86.93915679999998	86.93915679999998	86.93915679999998	86.93915679999998	86.93915679999998	86.93915679999998	96.58117229999999	100.78790249999997	100.8009892	101.6182619	101.28523739999997	97.08245269999998	image4_2	fotel.png	[-0.75, 0.25]	98.59900859999999	98.59900859999999	98.59900859999999	98.59900859999999	98.59900859999999	98.59900859999999	98.59900859999999	98.59900859999999	98.59900859999999	98.59900859999999	98.59900859999999	98.59900859999999	98.59900859999999	0.018044499999973596	100.78669259999998	True	[-0.60234375]	[0.24861111111111112]	[1]	[0]	[0]	[2.1869596999999885]	['image4_2']	['fotel.png']																		PP03	38	2024-05-06_11h17.06.368	visual_memory	2023.2.3	59.93044472584828	2024-05-06 11h17.26.274238 +0200	
./PP03_visual_memory_2024-05-06_11h17.06.368.csv	5					0	0	0	0	1	0	1	0	101.6182619										101.28567249999998	alma.png	[-0.75, -0.25]	fotel.png	[0.25, -0.25]	letra.png	[-0.25, 0.25]	esernyo.png	[0.25, 0.25]	papucs.png	[-0.75, -0.75]	blank.png	[2, 2]	blank.png	[2, 2]	blank.png	[2, 2]	blank.png	[2, 2]	blank.png	[2, 2]	blank.png	[2, 2]	blank.png	[2, 2]	blank.png	[2, 2]	102.80248929999999	102.80248929999999	102.80248929999999	102.80248929999999	102.80248929999999	102.80248929999999	102.80248929999999	102.80248929999999	102.80248929999999	102.80248929999999	102.80248929999999	102.80248929999999	102.80248929999999	112.7780209	117.1849497	117.1977885	118.03224940000001	117.68176030000001	113.27820359999998	image4_2	vodor.png	[-0.75, -0.75]	114.779201	114.779201	114.779201	114.779201	114.779201	114.779201	114.779201	114.779201	114.779201	114.779201	114.779201	114.779201	114.779201	0.001461300000016763	117.18388189999996	True	[-0.80859375]	[-0.6402777777777777]	[1]	[0]	[0]	[2.4034642000000304]	['image4_2']	['vodor.png']																		PP03	38	2024-05-06_11h17.06.368	visual_memory	2023.2.3	59.93044472584828	2024-05-06 11h17.26.274238 +0200	
./PP03_visual_memory_2024-05-06_11h17.06.368.csv	5					0	0	0	0	2	0	2	0	118.03224940000001										117.68213249999997	ora.png	[0.25, 0.25]	vodor.png	[0.25, -0.75]	alma.png	[-0.25, 0.25]	esernyo.png	[-0.75, 0.25]	kamera.png	[-0.25, -0.25]	blank.png	[2, 2]	blank.png	[2, 2]	blank.png	[2, 2]	blank.png	[2, 2]	blank.png	[2, 2]	blank.png	[2, 2]	blank.png	[2, 2]	blank.png	[2, 2]	119.21624589999999	119.21624589999999	119.21624589999999	119.21624589999999	119.21624589999999	119.21624589999999	119.21624589999999	119.21624589999999	119.21624589999999	119.21624589999999	119.21624589999999	119.21624589999999	119.21624589999999	129.17512749999997	132.58004489999996	132.59387279999999	133.4282225	133.07841109999998	129.675499	image4_2	auto.png	[-0.25, -0.25]	131.17630019999996	131.17630019999996	131.17630019999996	131.17630019999996	131.17630019999996	131.17630019999996	131.17630019999996	131.17630019999996	131.17630019999996	131.17630019999996	131.17630019999996	131.17630019999996	131.17630019999996	0.0013114000000200576	132.5792599	True	[-0.31875]	[-0.30972222222222223]	[1]	[0]	[0]	[1.4023520000000076]	['image4_2']	['auto.png']																		PP03	38	2024-05-06_11h17.06.368	visual_memory	2023.2.3	59.93044472584828	2024-05-06 11h17.26.274238 +0200	
./PP03_visual_memory_2024-05-06_11h17.06.368.csv	5					0	0	0	0	3	0	3	0	133.4282225										133.0788531	papucs.png	[-0.25, -0.25]	alma.png	[0.25, 0.25]	ollo.png	[0.75, -0.75]	letra.png	[-0.25, -0.75]	fagyi.png	[-0.75, -0.25]	blank.png	[2, 2]	blank.png	[2, 2]	blank.png	[2, 2]	blank.png	[2, 2]	blank.png	[2, 2]	blank.png	[2, 2]	blank.png	[2, 2]	blank.png	[2, 2]	134.59586509999997	134.59586509999997	134.59586509999997	134.59586509999997	134.59586509999997	134.59586509999997	134.59586509999997	134.59586509999997	134.59586509999997	134.59586509999997	134.59586509999997	134.59586509999997	134.59586509999997	144.5709986	148.47679849999997	148.4907836	149.32481769999998	148.9750992	145.07185039999996	image4_2	fotel.png	[-0.75, -0.25]	146.5891873	146.5891873	146.5891873	146.5891873	146.5891873	146.5891873	146.5891873	146.5891873	146.5891873	146.5891873	146.5891873	146.5891873	146.5891873	0.018393600000024435	148.47598419999997	True	[-0.6609375]	[-0.21666666666666667]	[1]	[0]	[0]	[1.88608210000001]	['image4_2']	['fotel.png']																		PP03	38	2024-05-06_11h17.06.368	visual_memory	2023.2.3	59.93044472584828	2024-05-06 11h17.26.274238 +0200	
./PP03_visual_memory_2024-05-06_11h17.06.368.csv	5					0	0	0	0	4	0	4	0	149.32481769999998										148.97553879999998	ceruza.png	[0.75, 0.25]	fagyi.png	[-0.75, 0.75]	ollo.png	[-0.75, -0.75]	laptop.png	[0.75, -0.75]	letra.png	[-0.25, -0.25]	blank.png	[2, 2]	blank.png	[2, 2]	blank.png	[2, 2]	blank.png	[2, 2]	blank.png	[2, 2]	blank.png	[2, 2]	blank.png	[2, 2]	blank.png	[2, 2]	150.4758837	150.4758837	150.4758837	150.4758837	150.4758837	150.4758837	150.4758837	150.4758837	150.4758837	150.4758837	150.4758837	150.4758837	150.4758837	160.46803390000002	163.75658309999994	163.7699933	164.97132880000004	164.25461469999993	160.96823370000004	image4_2	hajszarito.png	[-0.25, -0.25]	162.46918199999993	162.46918199999993	162.46918199999993	162.46918199999993	162.46918199999993	162.46918199999993	162.46918199999993	162.46918199999993	162.46918199999993	162.46918199999993	162.46918199999993	162.46918199999993	162.46918199999993	0.0013784999999870706	163.75579600000003	True	[-0.1515625]	[-0.2638888888888889]	[1]	[0]	[0]	[1.2857089000000315]	['image4_2']	['hajszarito.png']																		PP03	38	2024-05-06_11h17.06.368	visual_memory	2023.2.3	59.93044472584828	2024-05-06 11h17.26.274238 +0200	
./PP03_visual_memory_2024-05-06_11h17.06.368.csv	5					0	0	0	0																																																																																																									PP03	38	2024-05-06_11h17.06.368	visual_memory	2023.2.3	59.93044472584828	2024-05-06 11h17.26.274238 +0200	
./PP03_visual_memory_2024-05-06_11h17.06.368.csv	9					0	1	1	1	0	0	0	0	164.97132880000004										164.25582009999994	macko.png	[-0.75, -0.25]	fotel.png	[0.25, 0.25]	esernyo.png	[0.25, -0.75]	ollo.png	[0.75, -0.25]	letra.png	[0.75, -0.75]	kamera.png	[-0.25, 0.25]	papucs.png	[-0.75, 0.25]	szemuveg.png	[-0.25, -0.75]	laptop.png	[0.25, -0.25]	blank.png	[2, 2]	blank.png	[2, 2]	blank.png	[2, 2]	blank.png	[2, 2]	165.77220190000003	165.77220190000003	165.77220190000003	165.77220190000003	165.77220190000003	165.77220190000003	165.77220190000003	165.77220190000003	165.77220190000003	165.77220190000003	165.77220190000003	165.77220190000003	165.77220190000003	175.74742419999995	181.80664790000003	181.8185181	182.90288829999997	182.3030341	176.2479505	image8_2	hajszarito.png	[0.25, -0.25]	177.7650549	177.7650549	177.7650549	177.7650549	177.7650549	177.7650549	177.7650549	177.7650549	177.7650549	177.7650549	177.7650549	177.7650549	177.7650549	0.017835300000001553	181.8048579	False	[0.27109375]	[0.3125]	[1]	[0]	[0]	[4.038807700000007]	['image1_2']	['fotel.png']																		PP03	38	2024-05-06_11h17.06.368	visual_memory	2023.2.3	59.93044472584828	2024-05-06 11h17.26.274238 +0200	
./PP03_visual_memory_2024-05-06_11h17.06.368.csv	9					0	1	1	1	1	0	1	0	182.90288829999997										182.30346669999994	ceruza.png	[-0.25, -0.25]	kad.png	[-0.25, 0.25]	alma.png	[-0.75, -0.25]	kamera.png	[0.75, -0.25]	fagyi.png	[0.25, -0.75]	esernyo.png	[0.25, -0.25]	macko.png	[-0.75, 0.25]	fogas.png	[0.75, 0.75]	vodor.png	[-0.25, 0.75]	blank.png	[2, 2]	blank.png	[2, 2]	blank.png	[2, 2]	blank.png	[2, 2]	183.81969860000004	183.81969860000004	183.81969860000004	183.81969860000004	183.81969860000004	183.81969860000004	183.81969860000004	183.81969860000004	183.81969860000004	183.81969860000004	183.81969860000004	183.81969860000004	183.81969860000004	193.79611220000004	198.2521997	198.26592749999998	199.35004649999996	198.75013579999995	194.2962814	image8_2	zokni.png	[-0.25, 0.75]	195.79643309999994	195.79643309999994	195.79643309999994	195.79643309999994	195.79643309999994	195.79643309999994	195.79643309999994	195.79643309999994	195.79643309999994	195.79643309999994	195.79643309999994	195.79643309999994	195.79643309999994	0.0005227999999988242	198.25141599999995	True	[-0.134375]	[0.7583333333333333]	[1]	[0]	[0]	[2.4542876000000433]	['image8_2']	['zokni.png']																		PP03	38	2024-05-06_11h17.06.368	visual_memory	2023.2.3	59.93044472584828	2024-05-06 11h17.26.274238 +0200	
./PP03_visual_memory_2024-05-06_11h17.06.368.csv	9					0	1	1	1	2	0	2	0	199.35004649999996										198.7505847	ollo.png	[0.75, -0.25]	esernyo.png	[-0.75, -0.75]	macko.png	[0.75, -0.75]	fagyi.png	[0.25, -0.25]	zokni.png	[0.25, 0.75]	fotel.png	[0.25, -0.75]	ceruza.png	[-0.25, -0.25]	laptop.png	[-0.25, -0.75]	letra.png	[-0.75, 0.25]	blank.png	[2, 2]	blank.png	[2, 2]	blank.png	[2, 2]	blank.png	[2, 2]	200.26737979999996	200.26737979999996	200.26737979999996	200.26737979999996	200.26737979999996	200.26737979999996	200.26737979999996	200.26737979999996	200.26737979999996	200.26737979999996	200.26737979999996	200.26737979999996	200.26737979999996	210.24280829999998	213.93202859999997	213.94573960000002	215.02988830000004	214.429443	210.7429555	image8_2	ora.png	[-0.75, 0.25]	212.24409079999998	212.24409079999998	212.24409079999998	212.24409079999998	212.24409079999998	212.24409079999998	212.24409079999998	212.24409079999998	212.24409079999998	212.24409079999998	212.24409079999998	212.24409079999998	212.24409079999998	0.0014264000000139276	213.93121789999998	True	[-0.80625]	[0.39305555555555555]	[1]	[0]	[0]	[1.6864894999999933]	['image8_2']	['ora.png']																		PP03	38	2024-05-06_11h17.06.368	visual_memory	2023.2.3	59.93044472584828	2024-05-06 11h17.26.274238 +0200	
./PP03_visual_memory_2024-05-06_11h17.06.368.csv	9					0	1	1	1	3	0	3	0	215.02988830000004										214.42980279999995	macko.png	[-0.25, 0.75]	bogre.png	[0.75, -0.25]	szemuveg.png	[-0.25, -0.25]	fagyi.png	[-0.75, -0.25]	fogas.png	[-0.75, -0.75]	esernyo.png	[-0.25, 0.25]	kad.png	[0.75, 0.75]	papucs.png	[0.25, 0.25]	kamera.png	[0.25, -0.25]	blank.png	[2, 2]	blank.png	[2, 2]	blank.png	[2, 2]	blank.png	[2, 2]	215.94723039999997	215.94723039999997	215.94723039999997	215.94723039999997	215.94723039999997	215.94723039999997	215.94723039999997	215.94723039999997	215.94723039999997	215.94723039999997	215.94723039999997	215.94723039999997	215.94723039999997	225.92254219999995	231.01284769999995	231.02633509999998	232.1275227	231.51072999999997	226.42276830000003	image8_2	auto.png	[0.25, -0.25]	227.92371249999997	227.92371249999997	227.92371249999997	227.92371249999997	227.92371249999997	227.92371249999997	227.92371249999997	227.92371249999997	227.92371249999997	227.92371249999997	227.92371249999997	227.92371249999997	227.92371249999997	0.0013097999999445165	231.01204899999993	True	[0.115625]	[-0.2611111111111111]	[1]	[0]	[0]	[3.0876815000000306]	['image8_2']	['auto.png']																		PP03	38	2024-05-06_11h17.06.368	visual_memory	2023.2.3	59.93044472584828	2024-05-06 11h17.26.274238 +0200	
./PP03_visual_memory_2024-05-06_11h17.06.368.csv	9					0	1	1	1	4	0	4	0	232.1275227										231.51106800000002	ceruza.png	[0.75, 0.75]	laptop.png	[0.25, -0.25]	papucs.png	[-0.25, -0.25]	esernyo.png	[0.75, -0.75]	alma.png	[0.25, -0.75]	hajszarito.png	[0.75, 0.25]	letra.png	[-0.75, 0.25]	fagyi.png	[0.25, 0.75]	kad.png	[-0.75, -0.75]	blank.png	[2, 2]	blank.png	[2, 2]	blank.png	[2, 2]	blank.png	[2, 2]	233.02795930000002	233.02795930000002	233.02795930000002	233.02795930000002	233.02795930000002	233.02795930000002	233.02795930000002	233.02795930000002	233.02795930000002	233.02795930000002	233.02795930000002	233.02795930000002	233.02795930000002	243.0037555	250.03255360000003	250.04225789999998	251.9776852	250.52765969999996	243.50539430000003	image8_2	ollo.png	[-0.75, -0.75]	245.02138319999995	245.02138319999995	245.02138319999995	245.02138319999995	245.02138319999995	245.02138319999995	245.02138319999995	245.02138319999995	245.02138319999995	245.02138319999995	245.02138319999995	245.02138319999995	245.02138319999995	0.01785419999998794	250.03141099999993	True	[-0.68671875]	[-0.6375]	[1]	[0]	[0]	[5.009046099999978]	['image8_2']	['ollo.png']																		PP03	38	2024-05-06_11h17.06.368	visual_memory	2023.2.3	59.93044472584828	2024-05-06 11h17.26.274238 +0200	
./PP03_visual_memory_2024-05-06_11h17.06.368.csv	9					0	1	1	1																																																																																																									PP03	38	2024-05-06_11h17.06.368	visual_memory	2023.2.3	59.93044472584828	2024-05-06 11h17.26.274238 +0200	
./PP03_visual_memory_2024-05-06_11h17.06.368.csv	13					0	2	2	2	0	0	0	0	251.9776852										250.5289633	macko.png	[0.75, 0.75]	zokni.png	[-0.25, -0.25]	alma.png	[-0.75, 0.75]	szemuveg.png	[0.25, 0.25]	esernyo.png	[-0.75, 0.25]	fotel.png	[-0.75, -0.25]	hajszarito.png	[-0.25, 0.75]	ceruza.png	[0.25, 0.75]	letra.png	[0.75, 0.25]	bogre.png	[0.75, -0.25]	fogas.png	[0.25, -0.75]	ollo.png	[-0.25, -0.75]	laptop.png	[0.25, -0.25]	252.0607592	252.0607592	252.0607592	252.0607592	252.0607592	252.0607592	252.0607592	252.0607592	252.0607592	252.0607592	252.0607592	252.0607592	252.0607592	262.0212709	268.3614688	268.3742423	269.8590371	268.8586546	262.5202376	image12_2	fagyi.png	[0.25, -0.25]	264.137343	264.137343	264.137343	264.137343	264.137343	264.137343	264.137343	264.137343	264.137343	264.137343	264.137343	264.137343	264.137343	0.08299550000003819	268.36022719999994	False	[-0.8265625]	[0.13472222222222222]	[1]	[0]	[0]	[4.254908300000011]	['image4_2']	['esernyo.png']																		PP03	38	2024-05-06_11h17.06.368	visual_memory	2023.2.3	59.93044472584828	2024-05-06 11h17.26.274238 +0200	
./PP03_visual_memory_2024-05-06_11h17.06.368.csv	13					0	2	2	2	1	0	1	0	269.8590371										268.8591215	fotel.png	[-0.75, -0.25]	vodor.png	[0.25, -0.75]	fogas.png	[-0.25, -0.75]	ceruza.png	[-0.25, 0.25]	letra.png	[0.25, -0.25]	bogre.png	[0.75, 0.25]	kamera.png	[-0.75, 0.75]	alma.png	[-0.25, 0.75]	papucs.png	[-0.25, -0.25]	szemuveg.png	[0.75, -0.75]	esernyo.png	[0.25, 0.25]	macko.png	[0.25, 0.75]	zokni.png	[0.75, 0.75]	270.3926547	270.3926547	270.3926547	270.3926547	270.3926547	270.3926547	270.3926547	270.3926547	270.3926547	270.3926547	270.3926547	270.3926547	270.3926547	280.3516135	284.6914154	284.7051117	286.13935719999995	285.18907809999996	280.8519539	image12_2	laptop.png	[0.75, 0.75]	282.35222699999997	282.35222699999997	282.35222699999997	282.35222699999997	282.35222699999997	282.35222699999997	282.35222699999997	282.35222699999997	282.35222699999997	282.35222699999997	282.35222699999997	282.35222699999997	282.35222699999997	0.0007908999999699518	284.6905815	True	[0.73125]	[0.8555555555555555]	[1]	[0]	[0]	[2.337589499999922]	['image12_2']	['laptop.png']																		PP03	38	2024-05-06_11h17.06.368	visual_memory	2023.2.3	59.93044472584828	2024-05-06 11h17.26.274238 +0200	
./PP03_visual_memory_2024-05-06_11h17.06.368.csv	13					0	2	2	2	2	0	2	0	286.13935719999995										285.1894364	alma.png	[0.75, -0.75]	auto.png	[0.75, -0.25]	esernyo.png	[0.25, -0.75]	laptop.png	[0.75, 0.75]	letra.png	[-0.25, -0.75]	kad.png	[-0.25, 0.75]	fogas.png	[-0.75, -0.75]	macko.png	[-0.75, 0.25]	bogre.png	[-0.75, 0.75]	szemuveg.png	[0.25, -0.25]	papucs.png	[-0.25, -0.25]	hajszarito.png	[0.25, 0.25]	zokni.png	[0.75, 0.25]	286.70580859999995	286.70580859999995	286.70580859999995	286.70580859999995	286.70580859999995	286.70580859999995	286.70580859999995	286.70580859999995	286.70580859999995	286.70580859999995	286.70580859999995	286.70580859999995	286.70580859999995	296.6820014	307.9439552	307.95769069999994	309.642286	308.44188069999996	297.18223439999997	image12_2	ollo.png	[0.75, 0.25]	298.68258519999995	298.68258519999995	298.68258519999995	298.68258519999995	298.68258519999995	298.68258519999995	298.68258519999995	298.68258519999995	298.68258519999995	298.68258519999995	298.68258519999995	298.68258519999995	298.68258519999995	0.0007514999999784777	307.94316059999994	True	[0.6609375]	[0.2916666666666667]	[1]	[0]	[0]	[9.259898000000021]	['image12_2']	['ollo.png']																		PP03	38	2024-05-06_11h17.06.368	visual_memory	2023.2.3	59.93044472584828	2024-05-06 11h17.26.274238 +0200	
./PP03_visual_memory_2024-05-06_11h17.06.368.csv	13					0	2	2	2	3	0	3	0	309.642286										308.44221029999994	macko.png	[-0.25, -0.75]	szemuveg.png	[0.75, 0.75]	laptop.png	[0.25, 0.25]	papucs.png	[-0.75, -0.75]	auto.png	[0.25, -0.75]	alma.png	[-0.75, -0.25]	hajszarito.png	[0.75, -0.25]	fogas.png	[0.75, -0.75]	vodor.png	[-0.25, 0.25]	ceruza.png	[-0.75, 0.25]	fagyi.png	[0.25, 0.75]	fotel.png	[-0.25, -0.25]	bogre.png	[-0.25, 0.75]	309.9587063	309.9587063	309.9587063	309.9587063	309.9587063	309.9587063	309.9587063	309.9587063	309.9587063	309.9587063	309.9587063	309.9587063	309.9587063	319.93470189999994	332.5658022	332.57825249999996	334.380143	333.06261040000004	320.43522399999995	image12_2	kamera.png	[-0.25, 0.75]	321.9355389	321.9355389	321.9355389	321.9355389	321.9355389	321.9355389	321.9355389	321.9355389	321.9355389	321.9355389	321.9355389	321.9355389	321.9355389	0.0010085999999773776	332.56496319999997	False	[-0.6890625]	[-0.13333333333333333]	[1]	[0]	[0]	[10.628601500000059]	['image5_2']	['alma.png']																		PP03	38	2024-05-06_11h17.06.368	visual_memory	2023.2.3	59.93044472584828	2024-05-06 11h17.26.274238 +0200	
./PP03_visual_memory_2024-05-06_11h17.06.368.csv	13					0	2	2	2	4	0	4	0	334.380143										333.06299749999994	ceruza.png	[-0.25, 0.75]	fogas.png	[0.75, -0.75]	letra.png	[-0.75, 0.25]	bogre.png	[0.75, -0.25]	papucs.png	[-0.75, -0.25]	alma.png	[0.75, 0.25]	ollo.png	[-0.25, 0.25]	fotel.png	[0.25, -0.75]	macko.png	[-0.75, 0.75]	hajszarito.png	[-0.75, -0.75]	laptop.png	[-0.25, -0.25]	vodor.png	[0.25, 0.75]	zokni.png	[0.25, 0.25]	334.57931299999996	334.57931299999996	334.57931299999996	334.57931299999996	334.57931299999996	334.57931299999996	334.57931299999996	334.57931299999996	334.57931299999996	334.57931299999996	334.57931299999996	334.57931299999996	334.57931299999996	344.55538590000003	355.33374630000003	355.3475095	355.8479096	355.8316513	345.0562275	image12_2	auto.png	[0.25, 0.25]	346.55699329999993	346.55699329999993	346.55699329999993	346.55699329999993	346.55699329999993	346.55699329999993	346.55699329999993	346.55699329999993	346.55699329999993	346.55699329999993	346.55699329999993	346.55699329999993	346.55699329999993	0.002287299999920833	355.3328619	True	[0.1734375]	[0.2569444444444444]	[1]	[0]	[0]	[8.774529099999995]	['image12_2']	['auto.png']																		PP03	38	2024-05-06_11h17.06.368	visual_memory	2023.2.3	59.93044472584828	2024-05-06 11h17.26.274238 +0200	
./PP03_visual_memory_2024-05-06_11h17.06.368.csv	13					0	2	2	2																																																																																																									PP03	38	2024-05-06_11h17.06.368	visual_memory	2023.2.3	59.93044472584828	2024-05-06 11h17.26.274238 +0200	
./PP03_visual_memory_2024-05-06_11h17.06.368.csv																																																																																																								355.83178599999997	357.34919419999994	0.015552899999988767	358.6677972	[0.1734375]	[0.2569444444444444]	[1]	[0]	[0]	[1.3181251999999404]	PP03	38	2024-05-06_11h17.06.368	visual_memory	2023.2.3	59.93044472584828	2024-05-06 11h17.26.274238 +0200	
./SO1_visual_memory_2024-04-26_17h31.14.616.csv																0.03546090004965663	0.011813899967819452	[-0.10208333333333333]	[-0.13333333333333333]	[1]	[0]	[0]	[1.8807653000112623]																																																																																											SO1	18	2024-04-26_17h31.14.616	visual_memory	2023.02.03	None	2024-04-26 17h31.31.061854 +0200	
./SO1_visual_memory_2024-04-26_17h31.14.616.csv														72.76051270007156										72.39857569988817	letra.png	[0.25, -0.25]	laptop.png	[-0.75, -0.25]	ora.png	[-0.75, -0.75]	fogas.png	[0.75, 0.25]	bogre.png	[-0.25, 0.75]	blank.png	[2, 2]	blank.png	[2, 2]	blank.png	[2, 2]	blank.png	[2, 2]	blank.png	[2, 2]	blank.png	[2, 2]	blank.png	[2, 2]	blank.png	[2, 2]	72.76051270007156	72.76051270007156	72.76051270007156	72.76051270007156	72.76051270007156	72.76051270007156	72.76051270007156	72.76051270007156	72.76051270007156	72.76051270007156	72.76051270007156	72.76051270007156	72.76051270007156	82.40030799992383	82.40033550001681	82.41906320000999	83.26333409990184	82.91396100004204	82.91398190008476	image4_2	papucs.png	[-0.25, 0.75]	84.42562979995273	84.42562979995273	84.42562979995273	84.42562979995273	84.42562979995273	84.42562979995273	84.42562979995273	84.42562979995273	84.42562979995273	84.42562979995273	84.42562979995273	84.42562979995273	84.42562979995273	0.025544699979946017	85.6801360999234	True	[-0.09479166666666666]	[0.7925925925925926]	[1]	[0]	[0]	[1.2536844001151621]	['image4_2']	['papucs.png']	85.68104569986463	85.69955069990829	87.68413559999317		87.68418859993108	87.70282260002568	89.55088229989633											SO1	18	2024-04-26_17h31.14.616	visual_memory	2023.02.03	None	2024-04-26 17h31.31.061854 +0200	
./SO1_visual_memory_2024-04-26_17h31.14.616.csv	5					0	0	0	0	0	0	0	0	89.90661820000969										89.56294579990208	szemuveg.png	[0.75, -0.75]	macko.png	[0.25, -0.75]	fotel.png	[0.25, 0.75]	fagyi.png	[-0.75, 0.25]	alma.png	[0.75, -0.25]	blank.png	[2, 2]	blank.png	[2, 2]	blank.png	[2, 2]	blank.png	[2, 2]	blank.png	[2, 2]	blank.png	[2, 2]	blank.png	[2, 2]	blank.png	[2, 2]	89.90661820000969	89.90661820000969	89.90661820000969	89.90661820000969	89.90661820000969	89.90661820000969	89.90661820000969	89.90661820000969	89.90661820000969	89.90661820000969	89.90661820000969	89.90661820000969	89.90661820000969	99.53459719987586	103.80956700001843	103.82371250004508	104.66771629988216	104.32904740003869	100.04064920009114	image4_2	kamera.png	[0.75, -0.25]	101.56781690008938	101.56781690008938	101.56781690008938	101.56781690008938	101.56781690008938	101.56781690008938	101.56781690008938	101.56781690008938	101.56781690008938	101.56781690008938	101.56781690008938	101.56781690008938	101.56781690008938	0.03348780004307628	103.80822320003062	True	[0.7791666666666667]	[-0.21481481481481482]	[1]	[0]	[0]	[2.23952170019038]	['image4_2']	['kamera.png']																		SO1	18	2024-04-26_17h31.14.616	visual_memory	2023.02.03	None	2024-04-26 17h31.31.061854 +0200	
./SO1_visual_memory_2024-04-26_17h31.14.616.csv	5					0	0	0	0	1	0	1	0	104.66771629988216										104.32950640004128	fagyi.png	[-0.25, -0.25]	letra.png	[-0.75, -0.75]	auto.png	[-0.75, 0.25]	kad.png	[0.25, -0.25]	fogas.png	[0.75, -0.75]	blank.png	[2, 2]	blank.png	[2, 2]	blank.png	[2, 2]	blank.png	[2, 2]	blank.png	[2, 2]	blank.png	[2, 2]	blank.png	[2, 2]	blank.png	[2, 2]	105.82906899997033	105.82906899997033	105.82906899997033	105.82906899997033	105.82906899997033	105.82906899997033	105.82906899997033	105.82906899997033	105.82906899997033	105.82906899997033	105.82906899997033	105.82906899997033	105.82906899997033	115.81170789990574	120.24725680006668	120.26578929997049	121.1091529999394	120.75463379989378	116.31080530001782	image4_2	vodor.png	[0.75, -0.75]	117.84318590001203	117.84318590001203	117.84318590001203	117.84318590001203	117.84318590001203	117.84318590001203	117.84318590001203	117.84318590001203	117.84318590001203	117.84318590001203	117.84318590001203	117.84318590001203	117.84318590001203	0.031677599996328354	120.24620139994659	True	[0.6416666666666667]	[-0.7314814814814815]	[1]	[0]	[0]	[2.4018139999825507]	['image4_2']	['vodor.png']																		SO1	18	2024-04-26_17h31.14.616	visual_memory	2023.02.03	None	2024-04-26 17h31.31.061854 +0200	
./SO1_visual_memory_2024-04-26_17h31.14.616.csv	5					0	0	0	0	2	0	2	0	121.1091529999394										120.75633840006776	vodor.png	[-0.25, -0.25]	kamera.png	[0.25, -0.25]	alma.png	[0.75, 0.75]	laptop.png	[-0.25, 0.75]	fotel.png	[0.25, 0.75]	blank.png	[2, 2]	blank.png	[2, 2]	blank.png	[2, 2]	blank.png	[2, 2]	blank.png	[2, 2]	blank.png	[2, 2]	blank.png	[2, 2]	blank.png	[2, 2]	122.2651338998694	122.2651338998694	122.2651338998694	122.2651338998694	122.2651338998694	122.2651338998694	122.2651338998694	122.2651338998694	122.2651338998694	122.2651338998694	122.2651338998694	122.2651338998694	122.2651338998694	132.23579160007648	136.65710439998657	136.67318310006522	137.52488090004772	137.15844699996524	132.74331869999878	image4_2	fagyi.png	[0.25, 0.75]	134.26576559990644	134.26576559990644	134.26576559990644	134.26576559990644	134.26576559990644	134.26576559990644	134.26576559990644	134.26576559990644	134.26576559990644	134.26576559990644	134.26576559990644	134.26576559990644	134.26576559990644	0.030183600028976798	136.65392929990776	True	[0.19479166666666667]	[0.774074074074074]	[1]	[0]	[0]	[2.3871510999742895]	['image4_2']	['fagyi.png']																		SO1	18	2024-04-26_17h31.14.616	visual_memory	2023.02.03	None	2024-04-26 17h31.31.061854 +0200	
./SO1_visual_memory_2024-04-26_17h31.14.616.csv	5					0	0	0	0	3	0	3	0	137.52488090004772										137.15899550006725	esernyo.png	[0.75, 0.25]	ollo.png	[0.75, -0.75]	ceruza.png	[-0.25, 0.25]	alma.png	[0.75, -0.25]	fagyi.png	[-0.25, -0.75]	blank.png	[2, 2]	blank.png	[2, 2]	blank.png	[2, 2]	blank.png	[2, 2]	blank.png	[2, 2]	blank.png	[2, 2]	blank.png	[2, 2]	blank.png	[2, 2]	138.6832878999412	138.6832878999412	138.6832878999412	138.6832878999412	138.6832878999412	138.6832878999412	138.6832878999412	138.6832878999412	138.6832878999412	138.6832878999412	138.6832878999412	138.6832878999412	138.6832878999412	148.64171130000614	152.2632883999031	152.2780730999075	153.09879499999806	152.7614845999051	149.15023060003296	image4_2	kamera.png	[-0.25, -0.75]	150.68488289997913	150.68488289997913	150.68488289997913	150.68488289997913	150.68488289997913	150.68488289997913	150.68488289997913	150.68488289997913	150.68488289997913	150.68488289997913	150.68488289997913	150.68488289997913	150.68488289997913	0.007641100091859698	152.26243170001544	True	[-0.1125]	[-0.6425925925925926]	[1]	[0]	[0]	[1.6101824999786913]	['image4_2']	['kamera.png']																		SO1	18	2024-04-26_17h31.14.616	visual_memory	2023.02.03	None	2024-04-26 17h31.31.061854 +0200	
./SO1_visual_memory_2024-04-26_17h31.14.616.csv	5					0	0	0	0	4	0	4	0	153.09879499999806										152.76199220004492	kamera.png	[0.25, -0.25]	fagyi.png	[0.25, 0.25]	fotel.png	[0.75, 0.25]	ceruza.png	[-0.75, -0.25]	fogas.png	[-0.25, -0.25]	blank.png	[2, 2]	blank.png	[2, 2]	blank.png	[2, 2]	blank.png	[2, 2]	blank.png	[2, 2]	blank.png	[2, 2]	blank.png	[2, 2]	blank.png	[2, 2]	154.29198139999062	154.29198139999062	154.29198139999062	154.29198139999062	154.29198139999062	154.29198139999062	154.29198139999062	154.29198139999062	154.29198139999062	154.29198139999062	154.29198139999062	154.29198139999062	154.29198139999062	164.26504969992675	168.92106109997258	168.9403937999159	170.10763620003127	169.4315947999712	164.7799795998726	image4_2	ora.png	[-0.25, -0.25]	166.29378680000082	166.29378680000082	166.29378680000082	166.29378680000082	166.29378680000082	166.29378680000082	166.29378680000082	166.29378680000082	166.29378680000082	166.29378680000082	166.29378680000082	166.29378680000082	166.29378680000082	0.02894060011021793	168.92018179991283	True	[-0.215625]	[-0.2611111111111111]	[1]	[0]	[0]	[2.625349999871105]	['image4_2']	['ora.png']																		SO1	18	2024-04-26_17h31.14.616	visual_memory	2023.02.03	None	2024-04-26 17h31.31.061854 +0200	
./SO1_visual_memory_2024-04-26_17h31.14.616.csv	5					0	0	0	0																																																																																																									SO1	18	2024-04-26_17h31.14.616	visual_memory	2023.02.03	None	2024-04-26 17h31.31.061854 +0200	
./SO1_visual_memory_2024-04-26_17h31.14.616.csv	9					0	1	1	1	0	0	0	0	170.10763620003127										169.43323159986176	hajszarito.png	[-0.75, 0.75]	kamera.png	[-0.25, 0.25]	kad.png	[0.25, -0.25]	fagyi.png	[0.25, 0.25]	fogas.png	[-0.75, -0.75]	fotel.png	[0.25, 0.75]	szemuveg.png	[0.75, -0.25]	macko.png	[-0.25, -0.75]	esernyo.png	[-0.25, 0.75]	blank.png	[2, 2]	blank.png	[2, 2]	blank.png	[2, 2]	blank.png	[2, 2]	170.96338719991036	170.96338719991036	170.96338719991036	170.96338719991036	170.96338719991036	170.96338719991036	170.96338719991036	170.96338719991036	170.96338719991036	170.96338719991036	170.96338719991036	170.96338719991036	170.96338719991036	180.92087000003085	187.33406709996052	187.34829130000435	188.44001409993507	187.84263699990697	181.43965120008215	image8_2	ora.png	[-0.25, 0.75]	182.96386980009265	182.96386980009265	182.96386980009265	182.96386980009265	182.96386980009265	182.96386980009265	182.96386980009265	182.96386980009265	182.96386980009265	182.96386980009265	182.96386980009265	182.96386980009265	182.96386980009265	0.043265500105917454	187.33222260000184	True	[-0.24583333333333332]	[0.6611111111111111]	[1]	[0]	[0]	[4.366558099864051]	['image8_2']	['ora.png']																		SO1	18	2024-04-26_17h31.14.616	visual_memory	2023.02.03	None	2024-04-26 17h31.31.061854 +0200	
./SO1_visual_memory_2024-04-26_17h31.14.616.csv	9					0	1	1	1	1	0	1	0	188.44001409993507										187.84390489989892	ollo.png	[0.75, 0.25]	laptop.png	[-0.75, -0.25]	ceruza.png	[-0.75, -0.75]	alma.png	[-0.25, 0.25]	fagyi.png	[0.25, 0.75]	kad.png	[0.75, -0.25]	ora.png	[0.25, -0.75]	zokni.png	[-0.25, 0.75]	fogas.png	[0.25, -0.25]	blank.png	[2, 2]	blank.png	[2, 2]	blank.png	[2, 2]	blank.png	[2, 2]	189.36642439989373	189.36642439989373	189.36642439989373	189.36642439989373	189.36642439989373	189.36642439989373	189.36642439989373	189.36642439989373	189.36642439989373	189.36642439989373	189.36642439989373	189.36642439989373	189.36642439989373	199.32562629994936	206.33554570004344	206.34980139997788	207.4449346999172	206.8420913000591	199.83963049994782	image8_2	szemuveg.png	[0.25, -0.25]	201.35271189990453	201.35271189990453	201.35271189990453	201.35271189990453	201.35271189990453	201.35271189990453	201.35271189990453	201.35271189990453	201.35271189990453	201.35271189990453	201.35271189990453	201.35271189990453	201.35271189990453	0.027290300000458956	206.3347553999629	False	[-0.20104166666666667]	[0.6814814814814815]	[1]	[0]	[0]	[4.981247100047767]	['image7_2']	['zokni.png']																		SO1	18	2024-04-26_17h31.14.616	visual_memory	2023.02.03	None	2024-04-26 17h31.31.061854 +0200	
./SO1_visual_memory_2024-04-26_17h31.14.616.csv	9					0	1	1	1	2	0	2	0	207.4449346999172										206.84268620004877	papucs.png	[-0.25, -0.25]	macko.png	[0.25, 0.25]	laptop.png	[0.25, -0.25]	esernyo.png	[-0.25, -0.75]	zokni.png	[-0.75, 0.75]	bogre.png	[-0.75, -0.75]	alma.png	[0.75, 0.75]	fogas.png	[0.75, -0.25]	ora.png	[-0.75, 0.25]	blank.png	[2, 2]	blank.png	[2, 2]	blank.png	[2, 2]	blank.png	[2, 2]	208.37205339991488	208.37205339991488	208.37205339991488	208.37205339991488	208.37205339991488	208.37205339991488	208.37205339991488	208.37205339991488	208.37205339991488	208.37205339991488	208.37205339991488	208.37205339991488	208.37205339991488	218.33470940007828	224.85822899988852	224.877218300011	225.95751930004917	225.36737819993868	218.86263150000013	image8_2	ceruza.png	[-0.75, 0.25]	220.36973330006003	220.36973330006003	220.36973330006003	220.36973330006003	220.36973330006003	220.36973330006003	220.36973330006003	220.36973330006003	220.36973330006003	220.36973330006003	220.36973330006003	220.36973330006003	220.36973330006003	0.03511950001120567	224.8573813000694	True	[-0.703125]	[0.23703703703703705]	[1]	[0]	[0]	[4.486798300174996]	['image8_2']	['ceruza.png']																		SO1	18	2024-04-26_17h31.14.616	visual_memory	2023.02.03	None	2024-04-26 17h31.31.061854 +0200	
./SO1_visual_memory_2024-04-26_17h31.14.616.csv	9					0	1	1	1	3	0	3	0	225.95751930004917										225.3679021000862	laptop.png	[0.25, 0.75]	kad.png	[-0.75, 0.25]	papucs.png	[0.25, -0.75]	ora.png	[-0.75, -0.25]	fotel.png	[0.25, 0.25]	letra.png	[0.75, -0.25]	kamera.png	[-0.25, -0.75]	fogas.png	[0.25, -0.25]	ollo.png	[0.75, -0.75]	blank.png	[2, 2]	blank.png	[2, 2]	blank.png	[2, 2]	blank.png	[2, 2]	226.89864789997227	226.89864789997227	226.89864789997227	226.89864789997227	226.89864789997227	226.89864789997227	226.89864789997227	226.89864789997227	226.89864789997227	226.89864789997227	226.89864789997227	226.89864789997227	226.89864789997227	236.86992520000786	245.133565899916	245.14806460007094	246.22760479990393	245.65565779991448	237.38600230007432	image8_2	esernyo.png	[0.75, -0.75]	238.9035805000458	238.9035805000458	238.9035805000458	238.9035805000458	238.9035805000458	238.9035805000458	238.9035805000458	238.9035805000458	238.9035805000458	238.9035805000458	238.9035805000458	238.9035805000458	238.9035805000458	0.033801599871367216	245.13271839986555	False	[0.2677083333333333]	[-0.6759259259259259]	[1]	[0]	[0]	[6.228310800157487]	['image2_2']	['papucs.png']																		SO1	18	2024-04-26_17h31.14.616	visual_memory	2023.02.03	None	2024-04-26 17h31.31.061854 +0200	
./SO1_visual_memory_2024-04-26_17h31.14.616.csv	9					0	1	1	1	4	0	4	0	246.22760479990393										245.65616840007715	ollo.png	[-0.25, -0.25]	szemuveg.png	[-0.75, 0.75]	fotel.png	[0.75, -0.75]	vodor.png	[-0.25, 0.25]	fagyi.png	[0.25, 0.75]	kad.png	[-0.75, -0.25]	esernyo.png	[0.25, 0.25]	auto.png	[-0.75, -0.75]	bogre.png	[0.75, 0.75]	blank.png	[2, 2]	blank.png	[2, 2]	blank.png	[2, 2]	blank.png	[2, 2]	247.1691850000061	247.1691850000061	247.1691850000061	247.1691850000061	247.1691850000061	247.1691850000061	247.1691850000061	247.1691850000061	247.1691850000061	247.1691850000061	247.1691850000061	247.1691850000061	247.1691850000061	257.123731700005	263.2061916999519	263.2273289998993	264.6583815999329	263.7227658999618	257.6458224998787	image8_2	ceruza.png	[0.75, 0.75]	259.1698227999732	259.1698227999732	259.1698227999732	259.1698227999732	259.1698227999732	259.1698227999732	259.1698227999732	259.1698227999732	259.1698227999732	259.1698227999732	259.1698227999732	259.1698227999732	259.1698227999732	0.002836999949067831	263.20518509997055	True	[0.68125]	[0.7574074074074074]	[1]	[0]	[0]	[4.077157800085843]	['image8_2']	['ceruza.png']																		SO1	18	2024-04-26_17h31.14.616	visual_memory	2023.02.03	None	2024-04-26 17h31.31.061854 +0200	
./SO1_visual_memory_2024-04-26_17h31.14.616.csv	9					0	1	1	1																																																																																																									SO1	18	2024-04-26_17h31.14.616	visual_memory	2023.02.03	None	2024-04-26 17h31.31.061854 +0200	
./SO1_visual_memory_2024-04-26_17h31.14.616.csv	13					0	2	2	2	0	0	0	0	264.6583815999329										263.72411479987204	ollo.png	[0.25, 0.75]	szemuveg.png	[-0.25, -0.75]	hajszarito.png	[0.25, -0.75]	papucs.png	[-0.75, 0.25]	fagyi.png	[0.75, -0.25]	zokni.png	[0.75, 0.25]	kamera.png	[-0.25, 0.25]	alma.png	[-0.75, -0.75]	laptop.png	[0.25, -0.25]	ceruza.png	[-0.25, 0.75]	vodor.png	[-0.25, -0.25]	esernyo.png	[-0.75, 0.75]	macko.png	[0.25, 0.25]	265.247071800055	265.247071800055	265.247071800055	265.247071800055	265.247071800055	265.247071800055	265.247071800055	265.247071800055	265.247071800055	265.247071800055	265.247071800055	265.247071800055	265.247071800055	275.2104924998712	285.33953840006143	285.35843180003576	286.68067339994013	285.8592489999719	275.7133195998613	image12_2	letra.png	[0.25, 0.25]	277.25601059990004	277.25601059990004	277.25601059990004	277.25601059990004	277.25601059990004	277.25601059990004	277.25601059990004	277.25601059990004	277.25601059990004	277.25601059990004	277.25601059990004	277.25601059990004	277.25601059990004	0.04570890008471906	285.3381970000919	False	[-0.6197916666666666]	[-0.737037037037037]	[1]	[0]	[0]	[8.081400400027633]	['image7_2']	['alma.png']																		SO1	18	2024-04-26_17h31.14.616	visual_memory	2023.02.03	None	2024-04-26 17h31.31.061854 +0200	
./SO1_visual_memory_2024-04-26_17h31.14.616.csv	13					0	2	2	2	1	0	1	0	286.68067339994013										285.86009119986556	alma.png	[-0.25, -0.25]	ceruza.png	[-0.75, 0.25]	esernyo.png	[0.25, 0.25]	ollo.png	[-0.75, -0.25]	ora.png	[-0.75, -0.75]	szemuveg.png	[0.25, -0.25]	kamera.png	[0.25, 0.75]	auto.png	[-0.75, 0.75]	letra.png	[0.75, -0.25]	zokni.png	[-0.25, -0.75]	bogre.png	[-0.25, 0.75]	papucs.png	[0.25, -0.75]	vodor.png	[0.75, 0.25]	287.3877180998679	287.3877180998679	287.3877180998679	287.3877180998679	287.3877180998679	287.3877180998679	287.3877180998679	287.3877180998679	287.3877180998679	287.3877180998679	287.3877180998679	287.3877180998679	287.3877180998679	297.3515689999331	303.60179669992067	303.6158849999774	304.9687292999588	304.11267489986494	297.859886799939	image12_2	fotel.png	[0.75, 0.25]	299.39356089988723	299.39356089988723	299.39356089988723	299.39356089988723	299.39356089988723	299.39356089988723	299.39356089988723	299.39356089988723	299.39356089988723	299.39356089988723	299.39356089988723	299.39356089988723	299.39356089988723	0.042195199988782406	303.6010118999984	False	[0.6479166666666667]	[-0.15925925925925927]	[1]	[0]	[0]	[4.206649400060996]	['image8_2']	['letra.png']																		SO1	18	2024-04-26_17h31.14.616	visual_memory	2023.02.03	None	2024-04-26 17h31.31.061854 +0200	
./SO1_visual_memory_2024-04-26_17h31.14.616.csv	13					0	2	2	2	2	0	2	0	304.9687292999588										304.1133032999933	vodor.png	[0.75, -0.75]	auto.png	[-0.75, -0.75]	fogas.png	[0.75, -0.25]	macko.png	[-0.25, -0.75]	papucs.png	[-0.75, 0.25]	ceruza.png	[0.75, 0.25]	zokni.png	[-0.25, 0.75]	alma.png	[-0.25, 0.25]	kamera.png	[-0.75, -0.25]	fotel.png	[-0.25, -0.25]	ollo.png	[0.75, 0.75]	laptop.png	[0.25, 0.25]	letra.png	[0.25, -0.75]	305.6415482999291	305.6415482999291	305.6415482999291	305.6415482999291	305.6415482999291	305.6415482999291	305.6415482999291	305.6415482999291	305.6415482999291	305.6415482999291	305.6415482999291	305.6415482999291	305.6415482999291	315.60992249986157	331.5436442999635	331.55814499990083	332.8781015998684	332.0506253000349	316.1188175000716	image12_2	hajszarito.png	[0.25, -0.75]	317.66152349999174	317.66152349999174	317.66152349999174	317.66152349999174	317.66152349999174	317.66152349999174	317.66152349999174	317.66152349999174	317.66152349999174	317.66152349999174	317.66152349999174	317.66152349999174	317.66152349999174	0.05183829995803535	331.5428297999315	True	[0.33645833333333336]	[-0.7055555555555556]	[1]	[0]	[0]	[13.880388299934566]	['image12_2']	['hajszarito.png']																		SO1	18	2024-04-26_17h31.14.616	visual_memory	2023.02.03	None	2024-04-26 17h31.31.061854 +0200	
./SO1_visual_memory_2024-04-26_17h31.14.616.csv	13					0	2	2	2	3	0	3	0	332.8781015998684										332.05165069992654	kad.png	[-0.25, -0.25]	zokni.png	[-0.75, 0.25]	letra.png	[-0.75, -0.25]	fotel.png	[0.75, 0.25]	auto.png	[0.25, -0.75]	fagyi.png	[-0.25, 0.75]	ora.png	[0.25, 0.75]	laptop.png	[-0.75, 0.75]	alma.png	[0.25, -0.25]	ollo.png	[0.25, 0.25]	vodor.png	[0.75, -0.25]	papucs.png	[-0.25, 0.25]	fogas.png	[0.75, 0.75]	333.58005260000937	333.58005260000937	333.58005260000937	333.58005260000937	333.58005260000937	333.58005260000937	333.58005260000937	333.58005260000937	333.58005260000937	333.58005260000937	333.58005260000937	333.58005260000937	333.58005260000937	343.5359958000481	360.05612199986354	360.07466849987395	361.4019893000368	360.57595099997707	344.0445644999854	image12_2	macko.png	[0.75, 0.75]	345.56837789993733	345.56837789993733	345.56837789993733	345.56837789993733	345.56837789993733	345.56837789993733	345.56837789993733	345.56837789993733	345.56837789993733	345.56837789993733	345.56837789993733	345.56837789993733	345.56837789993733	0.032588599948212504	360.05533570004627	True	[0.6895833333333333]	[0.7129629629629629]	[1]	[0]	[0]	[14.48615669994615]	['image12_2']	['macko.png']																		SO1	18	2024-04-26_17h31.14.616	visual_memory	2023.02.03	None	2024-04-26 17h31.31.061854 +0200	
./SO1_visual_memory_2024-04-26_17h31.14.616.csv	13					0	2	2	2	4	0	4	0	361.4019893000368										360.5765579000581	fagyi.png	[-0.25, 0.25]	auto.png	[-0.75, 0.75]	fotel.png	[0.75, -0.25]	hajszarito.png	[0.75, 0.75]	laptop.png	[0.25, -0.75]	kamera.png	[-0.25, -0.25]	szemuveg.png	[-0.75, -0.75]	bogre.png	[0.25, -0.25]	ora.png	[0.75, -0.75]	papucs.png	[0.75, 0.25]	alma.png	[-0.75, 0.25]	macko.png	[0.25, 0.75]	esernyo.png	[-0.25, -0.75]	362.09801710001193	362.09801710001193	362.09801710001193	362.09801710001193	362.09801710001193	362.09801710001193	362.09801710001193	362.09801710001193	362.09801710001193	362.09801710001193	362.09801710001193	362.09801710001193	362.09801710001193	372.0565591000486	383.85135719995014	383.8698364999145	384.38379519991577	384.3605092000216	372.5779349000659	image12_2	fogas.png	[-0.25, -0.75]	374.10919529991224	374.10919529991224	374.10919529991224	374.10919529991224	374.10919529991224	374.10919529991224	374.10919529991224	374.10919529991224	374.10919529991224	374.10919529991224	374.10919529991224	374.10919529991224	374.10919529991224	0.0030203000642359257	383.8505679999944	True	[-0.103125]	[-0.687037037037037]	[1]	[0]	[0]	[9.789851099951193]	['image12_2']	['fogas.png']																		SO1	18	2024-04-26_17h31.14.616	visual_memory	2023.02.03	None	2024-04-26 17h31.31.061854 +0200	
./SO1_visual_memory_2024-04-26_17h31.14.616.csv	13					0	2	2	2																																																																																																									SO1	18	2024-04-26_17h31.14.616	visual_memory	2023.02.03	None	2024-04-26 17h31.31.061854 +0200	
./SO1_visual_memory_2024-04-26_17h31.14.616.csv																																																																																																								384.36062579997815	385.87112080003135	-0.0004588000010699034	386.6922611000482	[-0.47708333333333336]	[0.562962962962963]	[1]	[0]	[0]	[0.8389296000823379]	SO1	18	2024-04-26_17h31.14.616	visual_memory	2023.02.03	None	2024-04-26 17h31.31.061854 +0200	
./Z_mergeddataz.csv																0.033314500004053116	0.02516769990324974	[0.16770833333333332]	[0.19444444444444445]	[1]	[0]	[0]	[16.209452799987048]																																																																																											egyes	29	2024-05-05_19h43.49.031	visual_memory	2023.02.03	120.04283116110241	2024-05-05 19h44.38.806230 +0200	
./Z_mergeddataz.csv														90.86425830004737										90.5651817000471	macko.png	[-0.75, 0.25]	szemuveg.png	[0.75, -0.75]	zokni.png	[-0.75, -0.25]	ollo.png	[-0.25, 0.25]	bogre.png	[0.25, -0.75]	blank.png	[2, 2]	blank.png	[2, 2]	blank.png	[2, 2]	blank.png	[2, 2]	blank.png	[2, 2]	blank.png	[2, 2]	blank.png	[2, 2]	blank.png	[2, 2]	90.86425830004737	90.86425830004737	90.86425830004737	90.86425830004737	90.86425830004737	90.86425830004737	90.86425830004737	90.86425830004737	90.86425830004737	90.86425830004737	90.86425830004737	90.86425830004737	90.86425830004737	100.55640840018168	100.5564283002168	100.56443540006876	101.33910400001332	101.05677110003307	101.05678430013359	image4_2	fotel.png	[0.25, -0.75]	102.57257940014824	102.57257940014824	102.57257940014824	102.57257940014824	102.57257940014824	102.57257940014824	102.57257940014824	102.57257940014824	102.57257940014824	102.57257940014824	102.57257940014824	102.57257940014824	102.57257940014824	0.016313800122588873	107.14862590003759	TRUE	[0.3125]	[-0.7518518518518519]	[1]	[0]	[0]	[4.575372500345111]	['image4_2']	['fotel.png']	107.14926540013403	107.16415200009942	109.1558918999508	73.54795770021155	109.15593010000885	109.16411910019815	122.899931400083											egyes	29	2024-05-05_19h43.49.031	visual_memory	2023.02.03	120.04283116110241	2024-05-05 19h44.38.806230 +0200	
./Z_mergeddataz.csv	5					0	0	0	0	0	0	0	0	123.23023169999942										122.90816000010818	fagyi.png	[0.75, -0.25]	ora.png	[0.25, 0.75]	fotel.png	[-0.25, -0.75]	alma.png	[-0.25, 0.25]	ceruza.png	[-0.75, -0.75]	blank.png	[2, 2]	blank.png	[2, 2]	blank.png	[2, 2]	blank.png	[2, 2]	blank.png	[2, 2]	blank.png	[2, 2]	blank.png	[2, 2]	blank.png	[2, 2]	123.23023169999942	123.23023169999942	123.23023169999942	123.23023169999942	123.23023169999942	123.23023169999942	123.23023169999942	123.23023169999942	123.23023169999942	123.23023169999942	123.23023169999942	123.23023169999942	123.23023169999942	132.8971970998682	142.59182870015502	142.59607760002837	143.37122800014913	143.08888430008665	133.3973817001097	image4_2	szemuveg.png	[-0.75, -0.75]	134.91385470004752	134.91385470004752	134.91385470004752	134.91385470004752	134.91385470004752	134.91385470004752	134.91385470004752	134.91385470004752	134.91385470004752	134.91385470004752	134.91385470004752	134.91385470004752	134.91385470004752	0.016789499670267105	142.59081580024213	TRUE	[-0.6875]	[-0.7796296296296297]	[1]	[0]	[0]	[7.676157100126147]	['image4_2']	['szemuveg.png']																		egyes	29	2024-05-05_19h43.49.031	visual_memory	2023.02.03	120.04283116110241	2024-05-05 19h44.38.806230 +0200	
./Z_mergeddataz.csv	5					0	0	0	0	1	0	1	0	143.37122800014913										143.0891946000047	bogre.png	[-0.25, -0.25]	kad.png	[0.75, -0.75]	ora.png	[0.25, -0.75]	alma.png	[0.25, 0.25]	esernyo.png	[0.25, -0.25]	blank.png	[2, 2]	blank.png	[2, 2]	blank.png	[2, 2]	blank.png	[2, 2]	blank.png	[2, 2]	blank.png	[2, 2]	blank.png	[2, 2]	blank.png	[2, 2]	144.61263390025124	144.61263390025124	144.61263390025124	144.61263390025124	144.61263390025124	144.61263390025124	144.61263390025124	144.61263390025124	144.61263390025124	144.61263390025124	144.61263390025124	144.61263390025124	144.61263390025124	154.58814370026812	158.31535140005872	158.32936129998416	159.19577010022476	158.8215469000861	155.08846609992906	image4_2	papucs.png	[0.25, -0.25]	156.61283920006827	156.61283920006827	156.61283920006827	156.61283920006827	156.61283920006827	156.61283920006827	156.61283920006827	156.61283920006827	156.61283920006827	156.61283920006827	156.61283920006827	156.61283920006827	156.61283920006827	0.024836000055074692	158.31449240026996	TRUE	[0.275]	[-0.19814814814814816]	[1]	[0]	[0]	[1.7009226996451616]	['image4_2']	['papucs.png']																		egyes	29	2024-05-05_19h43.49.031	visual_memory	2023.02.03	120.04283116110241	2024-05-05 19h44.38.806230 +0200	
./Z_mergeddataz.csv	5					0	0	0	0	2	0	2	0	159.19577010022476										158.82186180027202	alma.png	[-0.75, 0.25]	fotel.png	[-0.75, -0.25]	auto.png	[0.25, -0.75]	papucs.png	[0.75, 0.25]	ceruza.png	[0.75, 0.75]	blank.png	[2, 2]	blank.png	[2, 2]	blank.png	[2, 2]	blank.png	[2, 2]	blank.png	[2, 2]	blank.png	[2, 2]	blank.png	[2, 2]	blank.png	[2, 2]	160.34602930024266	160.34602930024266	160.34602930024266	160.34602930024266	160.34602930024266	160.34602930024266	160.34602930024266	160.34602930024266	160.34602930024266	160.34602930024266	160.34602930024266	160.34602930024266	160.34602930024266	170.31291550025344	182.61506569990888	182.62016279995441	183.379031999968	183.11277989996597	170.8127580001019	image4_2	fagyi.png	[0.75, 0.75]	172.32888450007886	172.32888450007886	172.32888450007886	172.32888450007886	172.32888450007886	172.32888450007886	172.32888450007886	172.32888450007886	172.32888450007886	172.32888450007886	172.32888450007886	172.32888450007886	172.32888450007886	0.016202200204133987	182.61442400002852	FALSE	[-0.765625]	[0.3]	[1]	[0]	[0]	[10.284633999690413]	['image0_2']	['alma.png']																		egyes	29	2024-05-05_19h43.49.031	visual_memory	2023.02.03	120.04283116110241	2024-05-05 19h44.38.806230 +0200	
./Z_mergeddataz.csv	5					0	0	0	0	3	0	3	0	183.379031999968										183.1131007000804	esernyo.png	[-0.75, -0.25]	laptop.png	[0.25, 0.25]	alma.png	[-0.25, -0.75]	letra.png	[-0.25, 0.25]	kad.png	[-0.75, 0.25]	blank.png	[2, 2]	blank.png	[2, 2]	blank.png	[2, 2]	blank.png	[2, 2]	blank.png	[2, 2]	blank.png	[2, 2]	blank.png	[2, 2]	blank.png	[2, 2]	184.63642279990017	184.63642279990017	184.63642279990017	184.63642279990017	184.63642279990017	184.63642279990017	184.63642279990017	184.63642279990017	184.63642279990017	184.63642279990017	184.63642279990017	184.63642279990017	184.63642279990017	194.61226610001177	200.72215889999643	200.73649669997394	201.50331500032917	201.22895119991153	195.11230370029807	image4_2	ollo.png	[-0.75, 0.25]	196.63672540010884	196.63672540010884	196.63672540010884	196.63672540010884	196.63672540010884	196.63672540010884	196.63672540010884	196.63672540010884	196.63672540010884	196.63672540010884	196.63672540010884	196.63672540010884	196.63672540010884	0.024680699687451124	200.7215044000186	TRUE	[-0.7239583333333334]	[0.20555555555555555]	[1]	[0]	[0]	[4.083980700001121]	['image4_2']	['ollo.png']																		egyes	29	2024-05-05_19h43.49.031	visual_memory	2023.02.03	120.04283116110241	2024-05-05 19h44.38.806230 +0200	
./Z_mergeddataz.csv	5					0	0	0	0	4	0	4	0	201.50331500032917										201.22928690025583	szemuveg.png	[-0.75, 0.75]	esernyo.png	[-0.25, -0.25]	alma.png	[0.75, 0.75]	letra.png	[-0.75, -0.75]	ora.png	[0.75, -0.25]	blank.png	[2, 2]	blank.png	[2, 2]	blank.png	[2, 2]	blank.png	[2, 2]	blank.png	[2, 2]	blank.png	[2, 2]	blank.png	[2, 2]	blank.png	[2, 2]	202.7530598999001	202.7530598999001	202.7530598999001	202.7530598999001	202.7530598999001	202.7530598999001	202.7530598999001	202.7530598999001	202.7530598999001	202.7530598999001	202.7530598999001	202.7530598999001	202.7530598999001	212.71997170010582	217.43805229989812	217.44417260028422	218.41920700017363	217.9366517001763	213.22040890017524	image4_2	zokni.png	[0.75, -0.25]	214.73599070031196	214.73599070031196	214.73599070031196	214.73599070031196	214.73599070031196	214.73599070031196	214.73599070031196	214.73599070031196	214.73599070031196	214.73599070031196	214.73599070031196	214.73599070031196	214.73599070031196	0.016163199674338102	217.43741049990058	TRUE	[0.775]	[-0.31851851851851853]	[1]	[0]	[0]	[2.700722999870777]	['image4_2']	['zokni.png']																		egyes	29	2024-05-05_19h43.49.031	visual_memory	2023.02.03	120.04283116110241	2024-05-05 19h44.38.806230 +0200	
./Z_mergeddataz.csv	5					0	0	0	0																																																																																																									egyes	29	2024-05-05_19h43.49.031	visual_memory	2023.02.03	120.04283116110241	2024-05-05 19h44.38.806230 +0200	
./Z_mergeddataz.csv	9					0	1	1	1	0	0	0	0	218.41920700017363										217.93743940023705	esernyo.png	[0.75, 0.25]	laptop.png	[0.25, 0.25]	fagyi.png	[0.75, -0.25]	ora.png	[-0.25, 0.75]	kad.png	[-0.75, -0.25]	zokni.png	[0.25, 0.75]	ollo.png	[-0.75, 0.75]	bogre.png	[-0.75, -0.75]	vodor.png	[0.75, 0.75]	blank.png	[2, 2]	blank.png	[2, 2]	blank.png	[2, 2]	blank.png	[2, 2]	219.51935019996017	219.51935019996017	219.51935019996017	219.51935019996017	219.51935019996017	219.51935019996017	219.51935019996017	219.51935019996017	219.51935019996017	219.51935019996017	219.51935019996017	219.51935019996017	219.51935019996017	229.43643120024353	234.34749360010028	234.3517307001166	235.39373790007085	234.84473360003904	229.93630379997194	image8_2	letra.png	[0.75, 0.75]	231.50233050016686	231.50233050016686	231.50233050016686	231.50233050016686	231.50233050016686	231.50233050016686	231.50233050016686	231.50233050016686	231.50233050016686	231.50233050016686	231.50233050016686	231.50233050016686	231.50233050016686	0.06611610017716885	234.34645330021158	TRUE	[0.746875]	[0.7666666666666667]	[1]	[0]	[0]	[2.843177800066769]	['image8_2']	['letra.png']																		egyes	29	2024-05-05_19h43.49.031	visual_memory	2023.02.03	120.04283116110241	2024-05-05 19h44.38.806230 +0200	
./Z_mergeddataz.csv	9					0	1	1	1	1	0	1	0	235.39373790007085										234.84505280014127	auto.png	[0.25, 0.75]	bogre.png	[0.75, 0.25]	ora.png	[-0.25, -0.25]	zokni.png	[-0.75, 0.75]	fogas.png	[-0.25, 0.25]	laptop.png	[-0.25, 0.75]	macko.png	[0.75, -0.75]	papucs.png	[0.75, -0.25]	kad.png	[0.75, 0.75]	blank.png	[2, 2]	blank.png	[2, 2]	blank.png	[2, 2]	blank.png	[2, 2]	236.37928660027683	236.37928660027683	236.37928660027683	236.37928660027683	236.37928660027683	236.37928660027683	236.37928660027683	236.37928660027683	236.37928660027683	236.37928660027683	236.37928660027683	236.37928660027683	236.37928660027683	246.34392270026729	261.70468239998445	261.7090134001337	262.66773599991575	262.20218000002205	246.84427350014448	image8_2	fotel.png	[0.75, 0.75]	248.37754700006917	248.37754700006917	248.37754700006917	248.37754700006917	248.37754700006917	248.37754700006917	248.37754700006917	248.37754700006917	248.37754700006917	248.37754700006917	248.37754700006917	248.37754700006917	248.37754700006917	0.033766299951821566	261.70403670007363	FALSE	[0.821875]	[0.23148148148148148]	[1]	[0]	[0]	[13.325714800041169]	['image1_2']	['bogre.png']																		egyes	29	2024-05-05_19h43.49.031	visual_memory	2023.02.03	120.04283116110241	2024-05-05 19h44.38.806230 +0200	
./Z_mergeddataz.csv	9					0	1	1	1	2	0	2	0	262.66773599991575										262.2024925001897	kamera.png	[-0.75, 0.25]	auto.png	[-0.25, -0.25]	esernyo.png	[0.75, 0.25]	hajszarito.png	[-0.25, 0.75]	fagyi.png	[0.25, 0.75]	kad.png	[0.25, -0.75]	laptop.png	[0.25, 0.25]	ora.png	[-0.75, -0.75]	fotel.png	[0.25, -0.25]	blank.png	[2, 2]	blank.png	[2, 2]	blank.png	[2, 2]	blank.png	[2, 2]	263.7375525003299	263.7375525003299	263.7375525003299	263.7375525003299	263.7375525003299	263.7375525003299	263.7375525003299	263.7375525003299	263.7375525003299	263.7375525003299	263.7375525003299	263.7375525003299	263.7375525003299	273.7017036001198	278.98737230012193	279.00102710025385	279.96768569992855	279.49346810020506	274.2019507000223	image8_2	fogas.png	[0.25, -0.25]	275.7346835001372	275.7346835001372	275.7346835001372	275.7346835001372	275.7346835001372	275.7346835001372	275.7346835001372	275.7346835001372	275.7346835001372	275.7346835001372	275.7346835001372	275.7346835001372	275.7346835001372	0.033112000208348036	278.98673380026594	TRUE	[0.30104166666666665]	[-0.3]	[1]	[0]	[0]	[3.251404699869454]	['image8_2']	['fogas.png']																		egyes	29	2024-05-05_19h43.49.031	visual_memory	2023.02.03	120.04283116110241	2024-05-05 19h44.38.806230 +0200	
./Z_mergeddataz.csv	9					0	1	1	1	3	0	3	0	279.96768569992855										279.49377979990095	fogas.png	[-0.25, 0.75]	ollo.png	[0.25, -0.25]	alma.png	[0.75, 0.75]	esernyo.png	[0.25, 0.75]	zokni.png	[0.75, 0.25]	fagyi.png	[-0.75, -0.75]	laptop.png	[-0.25, 0.25]	macko.png	[0.25, 0.25]	vodor.png	[-0.25, -0.75]	blank.png	[2, 2]	blank.png	[2, 2]	blank.png	[2, 2]	blank.png	[2, 2]	281.01886960025877	281.01886960025877	281.01886960025877	281.01886960025877	281.01886960025877	281.01886960025877	281.01886960025877	281.01886960025877	281.01886960025877	281.01886960025877	281.01886960025877	281.01886960025877	281.01886960025877	290.98458940023556	302.55391950020567	302.5582027998753	303.51669319998473	303.0512447003275	291.4848420000635	image8_2	auto.png	[-0.25, -0.75]	293.01747540012	293.01747540012	293.01747540012	293.01747540012	293.01747540012	293.01747540012	293.01747540012	293.01747540012	293.01747540012	293.01747540012	293.01747540012	293.01747540012	293.01747540012	0.033058600034564734	302.55279570026323	FALSE	[0.19375]	[-0.3074074074074074]	[1]	[0]	[0]	[9.534423299599439]	['image1_2']	['ollo.png']																		egyes	29	2024-05-05_19h43.49.031	visual_memory	2023.02.03	120.04283116110241	2024-05-05 19h44.38.806230 +0200	
./Z_mergeddataz.csv	9					0	1	1	1	4	0	4	0	303.51669319998473										303.05155909992754	fotel.png	[0.75, 0.75]	ceruza.png	[0.75, -0.25]	fogas.png	[-0.25, -0.75]	letra.png	[-0.25, -0.25]	bogre.png	[-0.75, -0.25]	ora.png	[-0.75, -0.75]	ollo.png	[-0.75, 0.25]	kamera.png	[-0.75, 0.75]	alma.png	[0.75, -0.75]	blank.png	[2, 2]	blank.png	[2, 2]	blank.png	[2, 2]	blank.png	[2, 2]	304.5855947001837	304.5855947001837	304.5855947001837	304.5855947001837	304.5855947001837	304.5855947001837	304.5855947001837	304.5855947001837	304.5855947001837	304.5855947001837	304.5855947001837	304.5855947001837	304.5855947001837	314.5503197000362	327.50162190012634	327.51651650015265	328.67455350002274	328.0088410000317	315.05078250030056	image8_2	fagyi.png	[0.75, -0.75]	316.58331750007346	316.58331750007346	316.58331750007346	316.58331750007346	316.58331750007346	316.58331750007346	316.58331750007346	316.58331750007346	316.58331750007346	316.58331750007346	316.58331750007346	316.58331750007346	316.58331750007346	0.03321099979802966	327.5009793001227	FALSE	[-0.23125]	[-0.7666666666666667]	[1]	[0]	[0]	[10.916904599871486]	['image2_2']	['fogas.png']																		egyes	29	2024-05-05_19h43.49.031	visual_memory	2023.02.03	120.04283116110241	2024-05-05 19h44.38.806230 +0200	
./Z_mergeddataz.csv	9					0	1	1	1																																																																																																									egyes	29	2024-05-05_19h43.49.031	visual_memory	2023.02.03	120.04283116110241	2024-05-05 19h44.38.806230 +0200	
./Z_mergeddataz.csv	13					0	2	2	2	0	0	0	0	328.67455350002274										328.0096336998977	szemuveg.png	[-0.25, -0.25]	esernyo.png	[-0.75, 0.75]	ollo.png	[0.25, -0.25]	papucs.png	[0.25, -0.75]	vodor.png	[-0.75, 0.25]	fotel.png	[-0.25, 0.75]	alma.png	[0.75, 0.75]	ceruza.png	[0.75, -0.75]	ora.png	[0.25, 0.25]	zokni.png	[-0.75, -0.25]	macko.png	[0.75, 0.25]	letra.png	[-0.25, 0.25]	kad.png	[-0.25, -0.75]	329.5828804001212	329.5828804001212	329.5828804001212	329.5828804001212	329.5828804001212	329.5828804001212	329.5828804001212	329.5828804001212	329.5828804001212	329.5828804001212	329.5828804001212	329.5828804001212	329.5828804001212	339.49906180007383	349.86870770016685	349.8739523002878	351.0239069000818	350.3664269000292	340.0084628001787	image12_2	hajszarito.png	[-0.25, -0.75]	341.5744719002396	341.5744719002396	341.5744719002396	341.5744719002396	341.5744719002396	341.5744719002396	341.5744719002396	341.5744719002396	341.5744719002396	341.5744719002396	341.5744719002396	341.5744719002396	341.5744719002396	0.07554530026391149	349.86769840028137	TRUE	[-0.27291666666666664]	[-0.7814814814814814]	[1]	[0]	[0]	[8.292567200027406]	['image12_2']	['hajszarito.png']																		egyes	29	2024-05-05_19h43.49.031	visual_memory	2023.02.03	120.04283116110241	2024-05-05 19h44.38.806230 +0200	
./Z_mergeddataz.csv	13					0	2	2	2	1	0	1	0	351.0239069000818										350.36674389988184	szemuveg.png	[-0.75, -0.75]	fagyi.png	[0.75, -0.25]	fotel.png	[-0.25, -0.25]	papucs.png	[-0.75, 0.75]	letra.png	[-0.25, -0.75]	ora.png	[0.75, -0.75]	vodor.png	[-0.75, 0.25]	ollo.png	[0.25, 0.75]	hajszarito.png	[0.75, 0.25]	kamera.png	[-0.25, 0.75]	bogre.png	[0.25, 0.25]	kad.png	[-0.25, 0.25]	alma.png	[0.75, 0.75]	351.91581030003726	351.91581030003726	351.91581030003726	351.91581030003726	351.91581030003726	351.91581030003726	351.91581030003726	351.91581030003726	351.91581030003726	351.91581030003726	351.91581030003726	351.91581030003726	351.91581030003726	361.86553880013525	371.67707209987566	371.69021920021623	372.8316542003304	372.18261260027066	362.37454209988937	image12_2	zokni.png	[0.75, 0.75]	363.90728010004386	363.90728010004386	363.90728010004386	363.90728010004386	363.90728010004386	363.90728010004386	363.90728010004386	363.90728010004386	363.90728010004386	363.90728010004386	363.90728010004386	363.90728010004386	363.90728010004386	0.041972999926656485	371.67643600003794	FALSE	[-0.17395833333333333]	[0.15555555555555556]	[1]	[0]	[0]	[7.768361700233072]	['image11_2']	['kad.png']																		egyes	29	2024-05-05_19h43.49.031	visual_memory	2023.02.03	120.04283116110241	2024-05-05 19h44.38.806230 +0200	
./Z_mergeddataz.csv	13					0	2	2	2	2	0	2	0	372.8316542003304										372.18292950000614	vodor.png	[0.25, 0.75]	auto.png	[0.75, 0.75]	esernyo.png	[-0.75, 0.25]	ora.png	[0.75, 0.25]	ceruza.png	[0.75, -0.25]	fotel.png	[0.25, 0.25]	szemuveg.png	[-0.75, 0.75]	laptop.png	[-0.25, -0.75]	ollo.png	[0.75, -0.75]	zokni.png	[0.25, -0.75]	bogre.png	[-0.25, 0.25]	hajszarito.png	[-0.75, -0.75]	fogas.png	[0.25, -0.25]	373.72354950010777	373.72354950010777	373.72354950010777	373.72354950010777	373.72354950010777	373.72354950010777	373.72354950010777	373.72354950010777	373.72354950010777	373.72354950010777	373.72354950010777	373.72354950010777	373.72354950010777	383.67306690011173	396.9755222001113	396.9808879001066	398.1309759002179	397.47351039992645	384.18230810016394	image12_2	alma.png	[0.25, -0.25]	385.71492670010775	385.71492670010775	385.71492670010775	385.71492670010775	385.71492670010775	385.71492670010775	385.71492670010775	385.71492670010775	385.71492670010775	385.71492670010775	385.71492670010775	385.71492670010775	385.71492670010775	0.04201629990711808	396.9748921999708	FALSE	[0.728125]	[-0.26666666666666666]	[1]	[0]	[0]	[11.259290600195527]	['image4_2']	['ceruza.png']																		egyes	29	2024-05-05_19h43.49.031	visual_memory	2023.02.03	120.04283116110241	2024-05-05 19h44.38.806230 +0200	
./Z_mergeddataz.csv	13					0	2	2	2	3	0	3	0	398.1309759002179										397.473820600193	alma.png	[-0.75, 0.25]	ollo.png	[0.75, 0.25]	auto.png	[0.25, 0.25]	papucs.png	[-0.25, 0.75]	bogre.png	[-0.25, -0.25]	zokni.png	[-0.75, -0.25]	fogas.png	[0.25, 0.75]	szemuveg.png	[0.75, 0.75]	hajszarito.png	[-0.25, -0.75]	fotel.png	[-0.25, 0.25]	laptop.png	[0.25, -0.75]	macko.png	[0.25, -0.25]	ora.png	[0.75, -0.75]	399.0228681000881	399.0228681000881	399.0228681000881	399.0228681000881	399.0228681000881	399.0228681000881	399.0228681000881	399.0228681000881	399.0228681000881	399.0228681000881	399.0228681000881	399.0228681000881	399.0228681000881	408.97337160026655	423.3585399002768	423.36366830021143	424.5135395000689	423.85614680033177	409.47323670005426	image12_2	ceruza.png	[0.75, -0.75]	411.0142962001264	411.0142962001264	411.0142962001264	411.0142962001264	411.0142962001264	411.0142962001264	411.0142962001264	411.0142962001264	411.0142962001264	411.0142962001264	411.0142962001264	411.0142962001264	411.0142962001264	0.0410436000674963	423.3578845001757	FALSE	[-0.14375]	[0.29814814814814816]	[1]	[0]	[0]	[12.342827900312841]	['image9_2']	['fotel.png']																		egyes	29	2024-05-05_19h43.49.031	visual_memory	2023.02.03	120.04283116110241	2024-05-05 19h44.38.806230 +0200	
./Z_mergeddataz.csv	13					0	2	2	2	4	0	4	0	424.5135395000689										423.85645359987393	macko.png	[0.25, 0.25]	papucs.png	[0.75, -0.25]	alma.png	[0.75, 0.75]	ollo.png	[0.75, -0.75]	zokni.png	[-0.75, -0.25]	ceruza.png	[-0.25, -0.75]	fagyi.png	[0.75, 0.25]	szemuveg.png	[-0.75, 0.25]	ora.png	[-0.25, 0.25]	vodor.png	[-0.25, 0.75]	bogre.png	[0.25, 0.75]	kamera.png	[-0.75, 0.75]	fotel.png	[-0.75, -0.75]	425.40520999999717	425.40520999999717	425.40520999999717	425.40520999999717	425.40520999999717	425.40520999999717	425.40520999999717	425.40520999999717	425.40520999999717	425.40520999999717	425.40520999999717	425.40520999999717	425.40520999999717	435.36397089995444	444.6413529003039	444.6456764000468	445.14670599997044	445.13899550028145	435.8643470001407	image12_2	kad.png	[-0.75, -0.75]	437.41344640031457	437.41344640031457	437.41344640031457	437.41344640031457	437.41344640031457	437.41344640031457	437.41344640031457	437.41344640031457	437.41344640031457	437.41344640031457	437.41344640031457	437.41344640031457	437.41344640031457	0.049715499859303236	444.6407177001238	TRUE	[-0.6270833333333333]	[-0.7055555555555556]	[1]	[0]	[0]	[7.226478599943221]	['image12_2']	['kad.png']																		egyes	29	2024-05-05_19h43.49.031	visual_memory	2023.02.03	120.04283116110241	2024-05-05 19h44.38.806230 +0200	
./Z_mergeddataz.csv	13					0	2	2	2																																																																																																									egyes	29	2024-05-05_19h43.49.031	visual_memory	2023.02.03	120.04283116110241	2024-05-05 19h44.38.806230 +0200	
./Z_mergeddataz.csv																																																																																																								445.1390936002135	446.646639500279	0.005377700086683035	460.87998560024425	[0.05]	[0.005555555555555556]	[1]	[0]	[0]	[14.232786700129509]	egyes	29	2024-05-05_19h43.49.031	visual_memory	2023.02.03	120.04283116110241	2024-05-05 19h44.38.806230 +0200	
./Z_mergeddataz.csv																0.0305651999078691	0.02165520004928112	[0.25729166666666664]	[-0.49074074074074076]	[1]	[0]	[0]	[24.450233600102365]																																																																																											harmas	52	2024-05-05_20h03.46.078	visual_memory	2023.02.03	120.1631332570502	2024-05-05 20h04.11.282057 +0200	
./Z_mergeddataz.csv														97.41104769986123										97.111776500009	ora.png	[0.75, -0.25]	szemuveg.png	[0.25, 0.25]	letra.png	[-0.25, -0.75]	auto.png	[-0.75, -0.75]	kamera.png	[-0.75, 0.75]	blank.png	[2, 2]	blank.png	[2, 2]	blank.png	[2, 2]	blank.png	[2, 2]	blank.png	[2, 2]	blank.png	[2, 2]	blank.png	[2, 2]	blank.png	[2, 2]	97.41104769986123	97.41104769986123	97.41104769986123	97.41104769986123	97.41104769986123	97.41104769986123	97.41104769986123	97.41104769986123	97.41104769986123	97.41104769986123	97.41104769986123	97.41104769986123	97.41104769986123	107.10279719997197	107.10281609976664	107.11091039981693	107.88580260006711	107.60323749994859	107.60325179994106	image4_2	laptop.png	[-0.75, 0.75]	109.12766940006986	109.12766940006986	109.12766940006986	109.12766940006986	109.12766940006986	109.12766940006986	109.12766940006986	109.12766940006986	109.12766940006986	109.12766940006986	109.12766940006986	109.12766940006986	109.12766940006986	0.02508950000628829	111.1975034000352	TRUE	[-0.75625]	[0.6925925925925925]	[1]	[0]	[0]	[2.0690510999411345]	['image4_2']	['laptop.png']	111.19818389974535	111.20251449989155	113.19503309996799	113.20253879996017	113.19507019966841	113.20253879996017	152.11927379993722											harmas	52	2024-05-05_20h03.46.078	visual_memory	2023.02.03	120.1631332570502	2024-05-05 20h04.11.282057 +0200	
./Z_mergeddataz.csv	5					0	0	0	0	0	0	0	0	152.41807359969243										152.12726019974798	bogre.png	[-0.75, -0.75]	szemuveg.png	[-0.75, 0.75]	letra.png	[-0.25, 0.25]	fagyi.png	[-0.75, -0.25]	fogas.png	[0.25, 0.75]	blank.png	[2, 2]	blank.png	[2, 2]	blank.png	[2, 2]	blank.png	[2, 2]	blank.png	[2, 2]	blank.png	[2, 2]	blank.png	[2, 2]	blank.png	[2, 2]	152.41807359969243	152.41807359969243	152.41807359969243	152.41807359969243	152.41807359969243	152.41807359969243	152.41807359969243	152.41807359969243	152.41807359969243	152.41807359969243	152.41807359969243	152.41807359969243	152.41807359969243	162.11808189982548	166.37111399974674	166.37543499981984	167.24236160004511	166.86833359999582	162.61825460009277	image4_2	vodor.png	[0.25, 0.75]	164.14274229994044	164.14274229994044	164.14274229994044	164.14274229994044	164.14274229994044	164.14274229994044	164.14274229994044	164.14274229994044	164.14274229994044	164.14274229994044	164.14274229994044	164.14274229994044	164.14274229994044	0.024803000036627054	166.37005219981074	TRUE	[0.2947916666666667]	[0.7111111111111111]	[1]	[0]	[0]	[2.2266043997369707]	['image4_2']	['vodor.png']																		harmas	52	2024-05-05_20h03.46.078	visual_memory	2023.02.03	120.1631332570502	2024-05-05 20h04.11.282057 +0200	
./Z_mergeddataz.csv	5					0	0	0	0	1	0	1	0	167.24236160004511										166.86864600004628	papucs.png	[-0.25, -0.75]	kamera.png	[-0.25, 0.25]	esernyo.png	[0.25, 0.25]	hajszarito.png	[0.75, 0.75]	alma.png	[-0.75, -0.25]	blank.png	[2, 2]	blank.png	[2, 2]	blank.png	[2, 2]	blank.png	[2, 2]	blank.png	[2, 2]	blank.png	[2, 2]	blank.png	[2, 2]	blank.png	[2, 2]	168.39184049982578	168.39184049982578	168.39184049982578	168.39184049982578	168.39184049982578	168.39184049982578	168.39184049982578	168.39184049982578	168.39184049982578	168.39184049982578	168.39184049982578	168.39184049982578	168.39184049982578	178.3675902998075	183.78728589974344	183.79163810005412	184.5670650997199	184.28465209994465	178.86798809980974	image4_2	ora.png	[-0.75, -0.25]	180.38391020009294	180.38391020009294	180.38391020009294	180.38391020009294	180.38391020009294	180.38391020009294	180.38391020009294	180.38391020009294	180.38391020009294	180.38391020009294	180.38391020009294	180.38391020009294	180.38391020009294	0.016448500100523233	183.78641439974308	FALSE	[0.21875]	[0.20555555555555555]	[1]	[0]	[0]	[3.40158830024302]	['image2_2']	['esernyo.png']																		harmas	52	2024-05-05_20h03.46.078	visual_memory	2023.02.03	120.1631332570502	2024-05-05 20h04.11.282057 +0200	
./Z_mergeddataz.csv	5					0	0	0	0	2	0	2	0	184.5670650997199										184.2849639998749	papucs.png	[-0.25, 0.25]	ollo.png	[0.75, -0.25]	zokni.png	[-0.25, -0.75]	kad.png	[0.75, 0.75]	ora.png	[-0.25, 0.75]	blank.png	[2, 2]	blank.png	[2, 2]	blank.png	[2, 2]	blank.png	[2, 2]	blank.png	[2, 2]	blank.png	[2, 2]	blank.png	[2, 2]	blank.png	[2, 2]	185.80795529996976	185.80795529996976	185.80795529996976	185.80795529996976	185.80795529996976	185.80795529996976	185.80795529996976	185.80795529996976	185.80795529996976	185.80795529996976	185.80795529996976	185.80795529996976	185.80795529996976	195.78415550012141	199.71959659969434	199.72483150009066	200.5915479999967	200.21729120006785	196.2840215996839	image4_2	esernyo.png	[-0.25, 0.75]	197.80028019985184	197.80028019985184	197.80028019985184	197.80028019985184	197.80028019985184	197.80028019985184	197.80028019985184	197.80028019985184	197.80028019985184	197.80028019985184	197.80028019985184	197.80028019985184	197.80028019985184	0.016251500230282545	199.71889369981363	TRUE	[-0.32708333333333334]	[0.774074074074074]	[1]	[0]	[0]	[1.917914199642837]	['image4_2']	['esernyo.png']																		harmas	52	2024-05-05_20h03.46.078	visual_memory	2023.02.03	120.1631332570502	2024-05-05 20h04.11.282057 +0200	
./Z_mergeddataz.csv	5					0	0	0	0	3	0	3	0	200.5915479999967										200.21760449977592	kad.png	[0.25, 0.25]	kamera.png	[-0.25, 0.75]	ora.png	[0.25, -0.25]	macko.png	[0.75, -0.75]	fotel.png	[-0.75, 0.25]	blank.png	[2, 2]	blank.png	[2, 2]	blank.png	[2, 2]	blank.png	[2, 2]	blank.png	[2, 2]	blank.png	[2, 2]	blank.png	[2, 2]	blank.png	[2, 2]	201.74166300008073	201.74166300008073	201.74166300008073	201.74166300008073	201.74166300008073	201.74166300008073	201.74166300008073	201.74166300008073	201.74166300008073	201.74166300008073	201.74166300008073	201.74166300008073	201.74166300008073	211.72524929977953	218.0524299996905	218.0575850000605	218.8328049997799	218.55027809971943	212.22542909998447	image4_2	vodor.png	[-0.75, 0.25]	213.74121079966426	213.74121079966426	213.74121079966426	213.74121079966426	213.74121079966426	213.74121079966426	213.74121079966426	213.74121079966426	213.74121079966426	213.74121079966426	213.74121079966426	213.74121079966426	213.74121079966426	0.016090099699795246	218.05178469978273	FALSE	[-0.24166666666666667]	[0.6574074074074074]	[1]	[0]	[0]	[4.309881300199777]	['image1_2']	['kamera.png']																		harmas	52	2024-05-05_20h03.46.078	visual_memory	2023.02.03	120.1631332570502	2024-05-05 20h04.11.282057 +0200	
./Z_mergeddataz.csv	5					0	0	0	0	4	0	4	0	218.8328049997799										218.5505896001123	hajszarito.png	[-0.75, -0.25]	papucs.png	[0.25, -0.75]	laptop.png	[-0.25, -0.25]	kad.png	[0.75, -0.25]	alma.png	[0.25, 0.25]	blank.png	[2, 2]	blank.png	[2, 2]	blank.png	[2, 2]	blank.png	[2, 2]	blank.png	[2, 2]	blank.png	[2, 2]	blank.png	[2, 2]	blank.png	[2, 2]	220.07452799985185	220.07452799985185	220.07452799985185	220.07452799985185	220.07452799985185	220.07452799985185	220.07452799985185	220.07452799985185	220.07452799985185	220.07452799985185	220.07452799985185	220.07452799985185	220.07452799985185	230.049593700096	236.02723769983277	236.03227049997076	236.99890469992533	236.52476669987664	230.54997099982575	image4_2	kamera.png	[0.25, 0.25]	232.0662650996819	232.0662650996819	232.0662650996819	232.0662650996819	232.0662650996819	232.0662650996819	232.0662650996819	232.0662650996819	232.0662650996819	232.0662650996819	232.0662650996819	232.0662650996819	232.0662650996819	0.016800899989902973	236.0265878997743	TRUE	[0.22604166666666667]	[0.2388888888888889]	[1]	[0]	[0]	[3.9596528001129627]	['image4_2']	['kamera.png']																		harmas	52	2024-05-05_20h03.46.078	visual_memory	2023.02.03	120.1631332570502	2024-05-05 20h04.11.282057 +0200	
./Z_mergeddataz.csv	5					0	0	0	0																																																																																																									harmas	52	2024-05-05_20h03.46.078	visual_memory	2023.02.03	120.1631332570502	2024-05-05 20h04.11.282057 +0200	
./Z_mergeddataz.csv	9					0	1	1	1	0	0	0	0	236.99890469992533										236.52555319992825	fagyi.png	[-0.75, 0.25]	alma.png	[-0.25, 0.25]	fotel.png	[-0.25, -0.75]	fogas.png	[0.25, -0.75]	ora.png	[0.25, -0.25]	kamera.png	[0.75, 0.75]	macko.png	[0.25, 0.25]	esernyo.png	[-0.25, 0.75]	papucs.png	[-0.75, -0.75]	blank.png	[2, 2]	blank.png	[2, 2]	blank.png	[2, 2]	blank.png	[2, 2]	238.08199799992144	238.08199799992144	238.08199799992144	238.08199799992144	238.08199799992144	238.08199799992144	238.08199799992144	238.08199799992144	238.08199799992144	238.08199799992144	238.08199799992144	238.08199799992144	238.08199799992144	248.02405259991065	253.927093999926	253.93113219970837	254.9651554999873	254.42432369990274	248.52470629988238	image8_2	letra.png	[-0.75, -0.75]	250.07358400011435	250.07358400011435	250.07358400011435	250.07358400011435	250.07358400011435	250.07358400011435	250.07358400011435	250.07358400011435	250.07358400011435	250.07358400011435	250.07358400011435	250.07358400011435	250.07358400011435	0.0496657001785934	253.9260782999918	FALSE	[0.8104166666666667]	[0.7592592592592593]	[1]	[0]	[0]	[3.851707400288433]	['image5_2']	['kamera.png']																		harmas	52	2024-05-05_20h03.46.078	visual_memory	2023.02.03	120.1631332570502	2024-05-05 20h04.11.282057 +0200	
