pic_num;training_loop.thisRepN;training_loop.thisTrialN;training_loop.thisN;training_loop.thisIndex;trials_2.thisRepN;trials_2.thisTrialN;trials_2.thisN;trials_2.thisIndex;trials.thisRepN;trials.thisTrialN;trials.thisN;trials.thisIndex;thisRow.t;notes;intro_text.started;intro_click.started;intro_click.x;intro_click.y;intro_click.leftButton;intro_click.midButton;intro_click.rightButton;intro_click.time;show_images.started;image0_name;image0_position;image1_name;image1_position;image2_name;image2_position;image3_name;image3_position;image4_name;image4_position;image5_name;image5_position;image6_name;image6_position;image7_name;image7_position;image8_name;image8_position;image9_name;image9_position;image10_name;image10_position;image11_name;image11_position;image12_name;image12_position;image0.started;image1.started;image2.started;image3.started;image4.started;image5.started;image6.started;image7.started;image8.started;image9.started;image10.started;image11.started;image12.started;show_images.stopped;blank_screen.started;blank_text.started;blank_text.stopped;blank_screen.stopped;show_images_changed.started;correct_image;correct_image_name;correct_image_pos;image0_2.started;image1_2.started;image2_2.started;image3_2.started;image4_2.started;image5_2.started;image6_2.started;image7_2.started;image8_2.started;image9_2.started;image10_2.started;image11_2.started;image12_2.started;mouse.started;show_images_changed.stopped;is_correct;mouse.x;mouse.y;mouse.leftButton;mouse.midButton;mouse.rightButton;mouse.time;mouse.clicked_name;mouse.clicked_image;feedback.started;feedback_text.started;feedback.stopped;feedback_text.stopped;begin_real_trial.started;text.started;begin_real_trial.stopped;so_long_and_thanks_for_all_the_fish.started;goodbye_text.started;goodbye_click.started;so_long_and_thanks_for_all_the_fish.stopped;goodbye_click.x;goodbye_click.y;goodbye_click.leftButton;goodbye_click.midButton;goodbye_click.rightButton;goodbye_click.time;id;age;date;expName;psychopyVersion;frameRate;expStart
;;;;;;;;;;;;;;;0.033314500004053116;0.02516769990324974;[0.16770833333333332];[0.19444444444444445];[1];[0];[0];[16.209452799987048];;;;;;;;;;;;;;;;;;;;;;;;;;;;;;;;;;;;;;;;;;;;;;;;;;;;;;;;;;;;;;;;;;;;;;;;;;;;;;;;;;;;;;;;;;;egyes;29;2024-05-05_19h43.49.031;visual_memory;2023.02.03;120.04283116110241;2024-05-05 19h44.38.806230 +0200
;;;;;;;;;;;;;90.86425830004737;;;;;;;;;;90.5651817000471;macko.png;[-0.75, 0.25];szemuveg.png;[0.75, -0.75];zokni.png;[-0.75, -0.25];ollo.png;[-0.25, 0.25];bogre.png;[0.25, -0.75];blank.png;[2, 2];blank.png;[2, 2];blank.png;[2, 2];blank.png;[2, 2];blank.png;[2, 2];blank.png;[2, 2];blank.png;[2, 2];blank.png;[2, 2];90.86425830004737;90.86425830004737;90.86425830004737;90.86425830004737;90.86425830004737;90.86425830004737;90.86425830004737;90.86425830004737;90.86425830004737;90.86425830004737;90.86425830004737;90.86425830004737;90.86425830004737;100.55640840018168;100.5564283002168;100.56443540006876;101.33910400001332;101.05677110003307;101.05678430013359;image4_2;fotel.png;[0.25, -0.75];102.57257940014824;102.57257940014824;102.57257940014824;102.57257940014824;102.57257940014824;102.57257940014824;102.57257940014824;102.57257940014824;102.57257940014824;102.57257940014824;102.57257940014824;102.57257940014824;102.57257940014824;0.016313800122588873;107.14862590003759;TRUE;[0.3125];[-0.7518518518518519];[1];[0];[0];[4.575372500345111];['image4_2'];['fotel.png'];107.14926540013403;107.16415200009942;109.1558918999508;73.54795770021155;109.15593010000885;109.16411910019815;122.899931400083;;;;;;;;;;;egyes;29;2024-05-05_19h43.49.031;visual_memory;2023.02.03;120.04283116110241;2024-05-05 19h44.38.806230 +0200
5;;;;;0;0;0;0;0;0;0;0;123.23023169999942;;;;;;;;;;122.90816000010818;fagyi.png;[0.75, -0.25];ora.png;[0.25, 0.75];fotel.png;[-0.25, -0.75];alma.png;[-0.25, 0.25];ceruza.png;[-0.75, -0.75];blank.png;[2, 2];blank.png;[2, 2];blank.png;[2, 2];blank.png;[2, 2];blank.png;[2, 2];blank.png;[2, 2];blank.png;[2, 2];blank.png;[2, 2];123.23023169999942;123.23023169999942;123.23023169999942;123.23023169999942;123.23023169999942;123.23023169999942;123.23023169999942;123.23023169999942;123.23023169999942;123.23023169999942;123.23023169999942;123.23023169999942;123.23023169999942;132.8971970998682;142.59182870015502;142.59607760002837;143.37122800014913;143.08888430008665;133.3973817001097;image4_2;szemuveg.png;[-0.75, -0.75];134.91385470004752;134.91385470004752;134.91385470004752;134.91385470004752;134.91385470004752;134.91385470004752;134.91385470004752;134.91385470004752;134.91385470004752;134.91385470004752;134.91385470004752;134.91385470004752;134.91385470004752;0.016789499670267105;142.59081580024213;TRUE;[-0.6875];[-0.7796296296296297];[1];[0];[0];[7.676157100126147];['image4_2'];['szemuveg.png'];;;;;;;;;;;;;;;;;;egyes;29;2024-05-05_19h43.49.031;visual_memory;2023.02.03;120.04283116110241;2024-05-05 19h44.38.806230 +0200
5;;;;;0;0;0;0;1;0;1;0;143.37122800014913;;;;;;;;;;143.0891946000047;bogre.png;[-0.25, -0.25];kad.png;[0.75, -0.75];ora.png;[0.25, -0.75];alma.png;[0.25, 0.25];esernyo.png;[0.25, -0.25];blank.png;[2, 2];blank.png;[2, 2];blank.png;[2, 2];blank.png;[2, 2];blank.png;[2, 2];blank.png;[2, 2];blank.png;[2, 2];blank.png;[2, 2];144.61263390025124;144.61263390025124;144.61263390025124;144.61263390025124;144.61263390025124;144.61263390025124;144.61263390025124;144.61263390025124;144.61263390025124;144.61263390025124;144.61263390025124;144.61263390025124;144.61263390025124;154.58814370026812;158.31535140005872;158.32936129998416;159.19577010022476;158.8215469000861;155.08846609992906;image4_2;papucs.png;[0.25, -0.25];156.61283920006827;156.61283920006827;156.61283920006827;156.61283920006827;156.61283920006827;156.61283920006827;156.61283920006827;156.61283920006827;156.61283920006827;156.61283920006827;156.61283920006827;156.61283920006827;156.61283920006827;0.024836000055074692;158.31449240026996;TRUE;[0.275];[-0.19814814814814816];[1];[0];[0];[1.7009226996451616];['image4_2'];['papucs.png'];;;;;;;;;;;;;;;;;;egyes;29;2024-05-05_19h43.49.031;visual_memory;2023.02.03;120.04283116110241;2024-05-05 19h44.38.806230 +0200
5;;;;;0;0;0;0;2;0;2;0;159.19577010022476;;;;;;;;;;158.82186180027202;alma.png;[-0.75, 0.25];fotel.png;[-0.75, -0.25];auto.png;[0.25, -0.75];papucs.png;[0.75, 0.25];ceruza.png;[0.75, 0.75];blank.png;[2, 2];blank.png;[2, 2];blank.png;[2, 2];blank.png;[2, 2];blank.png;[2, 2];blank.png;[2, 2];blank.png;[2, 2];blank.png;[2, 2];160.34602930024266;160.34602930024266;160.34602930024266;160.34602930024266;160.34602930024266;160.34602930024266;160.34602930024266;160.34602930024266;160.34602930024266;160.34602930024266;160.34602930024266;160.34602930024266;160.34602930024266;170.31291550025344;182.61506569990888;182.62016279995441;183.379031999968;183.11277989996597;170.8127580001019;image4_2;fagyi.png;[0.75, 0.75];172.32888450007886;172.32888450007886;172.32888450007886;172.32888450007886;172.32888450007886;172.32888450007886;172.32888450007886;172.32888450007886;172.32888450007886;172.32888450007886;172.32888450007886;172.32888450007886;172.32888450007886;0.016202200204133987;182.61442400002852;FALSE;[-0.765625];[0.3];[1];[0];[0];[10.284633999690413];['image0_2'];['alma.png'];;;;;;;;;;;;;;;;;;egyes;29;2024-05-05_19h43.49.031;visual_memory;2023.02.03;120.04283116110241;2024-05-05 19h44.38.806230 +0200
5;;;;;0;0;0;0;3;0;3;0;183.379031999968;;;;;;;;;;183.1131007000804;esernyo.png;[-0.75, -0.25];laptop.png;[0.25, 0.25];alma.png;[-0.25, -0.75];letra.png;[-0.25, 0.25];kad.png;[-0.75, 0.25];blank.png;[2, 2];blank.png;[2, 2];blank.png;[2, 2];blank.png;[2, 2];blank.png;[2, 2];blank.png;[2, 2];blank.png;[2, 2];blank.png;[2, 2];184.63642279990017;184.63642279990017;184.63642279990017;184.63642279990017;184.63642279990017;184.63642279990017;184.63642279990017;184.63642279990017;184.63642279990017;184.63642279990017;184.63642279990017;184.63642279990017;184.63642279990017;194.61226610001177;200.72215889999643;200.73649669997394;201.50331500032917;201.22895119991153;195.11230370029807;image4_2;ollo.png;[-0.75, 0.25];196.63672540010884;196.63672540010884;196.63672540010884;196.63672540010884;196.63672540010884;196.63672540010884;196.63672540010884;196.63672540010884;196.63672540010884;196.63672540010884;196.63672540010884;196.63672540010884;196.63672540010884;0.024680699687451124;200.7215044000186;TRUE;[-0.7239583333333334];[0.20555555555555555];[1];[0];[0];[4.083980700001121];['image4_2'];['ollo.png'];;;;;;;;;;;;;;;;;;egyes;29;2024-05-05_19h43.49.031;visual_memory;2023.02.03;120.04283116110241;2024-05-05 19h44.38.806230 +0200
5;;;;;0;0;0;0;4;0;4;0;201.50331500032917;;;;;;;;;;201.22928690025583;szemuveg.png;[-0.75, 0.75];esernyo.png;[-0.25, -0.25];alma.png;[0.75, 0.75];letra.png;[-0.75, -0.75];ora.png;[0.75, -0.25];blank.png;[2, 2];blank.png;[2, 2];blank.png;[2, 2];blank.png;[2, 2];blank.png;[2, 2];blank.png;[2, 2];blank.png;[2, 2];blank.png;[2, 2];202.7530598999001;202.7530598999001;202.7530598999001;202.7530598999001;202.7530598999001;202.7530598999001;202.7530598999001;202.7530598999001;202.7530598999001;202.7530598999001;202.7530598999001;202.7530598999001;202.7530598999001;212.71997170010582;217.43805229989812;217.44417260028422;218.41920700017363;217.9366517001763;213.22040890017524;image4_2;zokni.png;[0.75, -0.25];214.73599070031196;214.73599070031196;214.73599070031196;214.73599070031196;214.73599070031196;214.73599070031196;214.73599070031196;214.73599070031196;214.73599070031196;214.73599070031196;214.73599070031196;214.73599070031196;214.73599070031196;0.016163199674338102;217.43741049990058;TRUE;[0.775];[-0.31851851851851853];[1];[0];[0];[2.700722999870777];['image4_2'];['zokni.png'];;;;;;;;;;;;;;;;;;egyes;29;2024-05-05_19h43.49.031;visual_memory;2023.02.03;120.04283116110241;2024-05-05 19h44.38.806230 +0200
5;;;;;0;0;0;0;;;;;;;;;;;;;;;;;;;;;;;;;;;;;;;;;;;;;;;;;;;;;;;;;;;;;;;;;;;;;;;;;;;;;;;;;;;;;;;;;;;;;;;;;;;;;;;;;;;;;;;;;egyes;29;2024-05-05_19h43.49.031;visual_memory;2023.02.03;120.04283116110241;2024-05-05 19h44.38.806230 +0200
9;;;;;0;1;1;1;0;0;0;0;218.41920700017363;;;;;;;;;;217.93743940023705;esernyo.png;[0.75, 0.25];laptop.png;[0.25, 0.25];fagyi.png;[0.75, -0.25];ora.png;[-0.25, 0.75];kad.png;[-0.75, -0.25];zokni.png;[0.25, 0.75];ollo.png;[-0.75, 0.75];bogre.png;[-0.75, -0.75];vodor.png;[0.75, 0.75];blank.png;[2, 2];blank.png;[2, 2];blank.png;[2, 2];blank.png;[2, 2];219.51935019996017;219.51935019996017;219.51935019996017;219.51935019996017;219.51935019996017;219.51935019996017;219.51935019996017;219.51935019996017;219.51935019996017;219.51935019996017;219.51935019996017;219.51935019996017;219.51935019996017;229.43643120024353;234.34749360010028;234.3517307001166;235.39373790007085;234.84473360003904;229.93630379997194;image8_2;letra.png;[0.75, 0.75];231.50233050016686;231.50233050016686;231.50233050016686;231.50233050016686;231.50233050016686;231.50233050016686;231.50233050016686;231.50233050016686;231.50233050016686;231.50233050016686;231.50233050016686;231.50233050016686;231.50233050016686;0.06611610017716885;234.34645330021158;TRUE;[0.746875];[0.7666666666666667];[1];[0];[0];[2.843177800066769];['image8_2'];['letra.png'];;;;;;;;;;;;;;;;;;egyes;29;2024-05-05_19h43.49.031;visual_memory;2023.02.03;120.04283116110241;2024-05-05 19h44.38.806230 +0200
9;;;;;0;1;1;1;1;0;1;0;235.39373790007085;;;;;;;;;;234.84505280014127;auto.png;[0.25, 0.75];bogre.png;[0.75, 0.25];ora.png;[-0.25, -0.25];zokni.png;[-0.75, 0.75];fogas.png;[-0.25, 0.25];laptop.png;[-0.25, 0.75];macko.png;[0.75, -0.75];papucs.png;[0.75, -0.25];kad.png;[0.75, 0.75];blank.png;[2, 2];blank.png;[2, 2];blank.png;[2, 2];blank.png;[2, 2];236.37928660027683;236.37928660027683;236.37928660027683;236.37928660027683;236.37928660027683;236.37928660027683;236.37928660027683;236.37928660027683;236.37928660027683;236.37928660027683;236.37928660027683;236.37928660027683;236.37928660027683;246.34392270026729;261.70468239998445;261.7090134001337;262.66773599991575;262.20218000002205;246.84427350014448;image8_2;fotel.png;[0.75, 0.75];248.37754700006917;248.37754700006917;248.37754700006917;248.37754700006917;248.37754700006917;248.37754700006917;248.37754700006917;248.37754700006917;248.37754700006917;248.37754700006917;248.37754700006917;248.37754700006917;248.37754700006917;0.033766299951821566;261.70403670007363;FALSE;[0.821875];[0.23148148148148148];[1];[0];[0];[13.325714800041169];['image1_2'];['bogre.png'];;;;;;;;;;;;;;;;;;egyes;29;2024-05-05_19h43.49.031;visual_memory;2023.02.03;120.04283116110241;2024-05-05 19h44.38.806230 +0200
9;;;;;0;1;1;1;2;0;2;0;262.66773599991575;;;;;;;;;;262.2024925001897;kamera.png;[-0.75, 0.25];auto.png;[-0.25, -0.25];esernyo.png;[0.75, 0.25];hajszarito.png;[-0.25, 0.75];fagyi.png;[0.25, 0.75];kad.png;[0.25, -0.75];laptop.png;[0.25, 0.25];ora.png;[-0.75, -0.75];fotel.png;[0.25, -0.25];blank.png;[2, 2];blank.png;[2, 2];blank.png;[2, 2];blank.png;[2, 2];263.7375525003299;263.7375525003299;263.7375525003299;263.7375525003299;263.7375525003299;263.7375525003299;263.7375525003299;263.7375525003299;263.7375525003299;263.7375525003299;263.7375525003299;263.7375525003299;263.7375525003299;273.7017036001198;278.98737230012193;279.00102710025385;279.96768569992855;279.49346810020506;274.2019507000223;image8_2;fogas.png;[0.25, -0.25];275.7346835001372;275.7346835001372;275.7346835001372;275.7346835001372;275.7346835001372;275.7346835001372;275.7346835001372;275.7346835001372;275.7346835001372;275.7346835001372;275.7346835001372;275.7346835001372;275.7346835001372;0.033112000208348036;278.98673380026594;TRUE;[0.30104166666666665];[-0.3];[1];[0];[0];[3.251404699869454];['image8_2'];['fogas.png'];;;;;;;;;;;;;;;;;;egyes;29;2024-05-05_19h43.49.031;visual_memory;2023.02.03;120.04283116110241;2024-05-05 19h44.38.806230 +0200
9;;;;;0;1;1;1;3;0;3;0;279.96768569992855;;;;;;;;;;279.49377979990095;fogas.png;[-0.25, 0.75];ollo.png;[0.25, -0.25];alma.png;[0.75, 0.75];esernyo.png;[0.25, 0.75];zokni.png;[0.75, 0.25];fagyi.png;[-0.75, -0.75];laptop.png;[-0.25, 0.25];macko.png;[0.25, 0.25];vodor.png;[-0.25, -0.75];blank.png;[2, 2];blank.png;[2, 2];blank.png;[2, 2];blank.png;[2, 2];281.01886960025877;281.01886960025877;281.01886960025877;281.01886960025877;281.01886960025877;281.01886960025877;281.01886960025877;281.01886960025877;281.01886960025877;281.01886960025877;281.01886960025877;281.01886960025877;281.01886960025877;290.98458940023556;302.55391950020567;302.5582027998753;303.51669319998473;303.0512447003275;291.4848420000635;image8_2;auto.png;[-0.25, -0.75];293.01747540012;293.01747540012;293.01747540012;293.01747540012;293.01747540012;293.01747540012;293.01747540012;293.01747540012;293.01747540012;293.01747540012;293.01747540012;293.01747540012;293.01747540012;0.033058600034564734;302.55279570026323;FALSE;[0.19375];[-0.3074074074074074];[1];[0];[0];[9.534423299599439];['image1_2'];['ollo.png'];;;;;;;;;;;;;;;;;;egyes;29;2024-05-05_19h43.49.031;visual_memory;2023.02.03;120.04283116110241;2024-05-05 19h44.38.806230 +0200
9;;;;;0;1;1;1;4;0;4;0;303.51669319998473;;;;;;;;;;303.05155909992754;fotel.png;[0.75, 0.75];ceruza.png;[0.75, -0.25];fogas.png;[-0.25, -0.75];letra.png;[-0.25, -0.25];bogre.png;[-0.75, -0.25];ora.png;[-0.75, -0.75];ollo.png;[-0.75, 0.25];kamera.png;[-0.75, 0.75];alma.png;[0.75, -0.75];blank.png;[2, 2];blank.png;[2, 2];blank.png;[2, 2];blank.png;[2, 2];304.5855947001837;304.5855947001837;304.5855947001837;304.5855947001837;304.5855947001837;304.5855947001837;304.5855947001837;304.5855947001837;304.5855947001837;304.5855947001837;304.5855947001837;304.5855947001837;304.5855947001837;314.5503197000362;327.50162190012634;327.51651650015265;328.67455350002274;328.0088410000317;315.05078250030056;image8_2;fagyi.png;[0.75, -0.75];316.58331750007346;316.58331750007346;316.58331750007346;316.58331750007346;316.58331750007346;316.58331750007346;316.58331750007346;316.58331750007346;316.58331750007346;316.58331750007346;316.58331750007346;316.58331750007346;316.58331750007346;0.03321099979802966;327.5009793001227;FALSE;[-0.23125];[-0.7666666666666667];[1];[0];[0];[10.916904599871486];['image2_2'];['fogas.png'];;;;;;;;;;;;;;;;;;egyes;29;2024-05-05_19h43.49.031;visual_memory;2023.02.03;120.04283116110241;2024-05-05 19h44.38.806230 +0200
9;;;;;0;1;1;1;;;;;;;;;;;;;;;;;;;;;;;;;;;;;;;;;;;;;;;;;;;;;;;;;;;;;;;;;;;;;;;;;;;;;;;;;;;;;;;;;;;;;;;;;;;;;;;;;;;;;;;;;egyes;29;2024-05-05_19h43.49.031;visual_memory;2023.02.03;120.04283116110241;2024-05-05 19h44.38.806230 +0200
13;;;;;0;2;2;2;0;0;0;0;328.67455350002274;;;;;;;;;;328.0096336998977;szemuveg.png;[-0.25, -0.25];esernyo.png;[-0.75, 0.75];ollo.png;[0.25, -0.25];papucs.png;[0.25, -0.75];vodor.png;[-0.75, 0.25];fotel.png;[-0.25, 0.75];alma.png;[0.75, 0.75];ceruza.png;[0.75, -0.75];ora.png;[0.25, 0.25];zokni.png;[-0.75, -0.25];macko.png;[0.75, 0.25];letra.png;[-0.25, 0.25];kad.png;[-0.25, -0.75];329.5828804001212;329.5828804001212;329.5828804001212;329.5828804001212;329.5828804001212;329.5828804001212;329.5828804001212;329.5828804001212;329.5828804001212;329.5828804001212;329.5828804001212;329.5828804001212;329.5828804001212;339.49906180007383;349.86870770016685;349.8739523002878;351.0239069000818;350.3664269000292;340.0084628001787;image12_2;hajszarito.png;[-0.25, -0.75];341.5744719002396;341.5744719002396;341.5744719002396;341.5744719002396;341.5744719002396;341.5744719002396;341.5744719002396;341.5744719002396;341.5744719002396;341.5744719002396;341.5744719002396;341.5744719002396;341.5744719002396;0.07554530026391149;349.86769840028137;TRUE;[-0.27291666666666664];[-0.7814814814814814];[1];[0];[0];[8.292567200027406];['image12_2'];['hajszarito.png'];;;;;;;;;;;;;;;;;;egyes;29;2024-05-05_19h43.49.031;visual_memory;2023.02.03;120.04283116110241;2024-05-05 19h44.38.806230 +0200
13;;;;;0;2;2;2;1;0;1;0;351.0239069000818;;;;;;;;;;350.36674389988184;szemuveg.png;[-0.75, -0.75];fagyi.png;[0.75, -0.25];fotel.png;[-0.25, -0.25];papucs.png;[-0.75, 0.75];letra.png;[-0.25, -0.75];ora.png;[0.75, -0.75];vodor.png;[-0.75, 0.25];ollo.png;[0.25, 0.75];hajszarito.png;[0.75, 0.25];kamera.png;[-0.25, 0.75];bogre.png;[0.25, 0.25];kad.png;[-0.25, 0.25];alma.png;[0.75, 0.75];351.91581030003726;351.91581030003726;351.91581030003726;351.91581030003726;351.91581030003726;351.91581030003726;351.91581030003726;351.91581030003726;351.91581030003726;351.91581030003726;351.91581030003726;351.91581030003726;351.91581030003726;361.86553880013525;371.67707209987566;371.69021920021623;372.8316542003304;372.18261260027066;362.37454209988937;image12_2;zokni.png;[0.75, 0.75];363.90728010004386;363.90728010004386;363.90728010004386;363.90728010004386;363.90728010004386;363.90728010004386;363.90728010004386;363.90728010004386;363.90728010004386;363.90728010004386;363.90728010004386;363.90728010004386;363.90728010004386;0.041972999926656485;371.67643600003794;FALSE;[-0.17395833333333333];[0.15555555555555556];[1];[0];[0];[7.768361700233072];['image11_2'];['kad.png'];;;;;;;;;;;;;;;;;;egyes;29;2024-05-05_19h43.49.031;visual_memory;2023.02.03;120.04283116110241;2024-05-05 19h44.38.806230 +0200
13;;;;;0;2;2;2;2;0;2;0;372.8316542003304;;;;;;;;;;372.18292950000614;vodor.png;[0.25, 0.75];auto.png;[0.75, 0.75];esernyo.png;[-0.75, 0.25];ora.png;[0.75, 0.25];ceruza.png;[0.75, -0.25];fotel.png;[0.25, 0.25];szemuveg.png;[-0.75, 0.75];laptop.png;[-0.25, -0.75];ollo.png;[0.75, -0.75];zokni.png;[0.25, -0.75];bogre.png;[-0.25, 0.25];hajszarito.png;[-0.75, -0.75];fogas.png;[0.25, -0.25];373.72354950010777;373.72354950010777;373.72354950010777;373.72354950010777;373.72354950010777;373.72354950010777;373.72354950010777;373.72354950010777;373.72354950010777;373.72354950010777;373.72354950010777;373.72354950010777;373.72354950010777;383.67306690011173;396.9755222001113;396.9808879001066;398.1309759002179;397.47351039992645;384.18230810016394;image12_2;alma.png;[0.25, -0.25];385.71492670010775;385.71492670010775;385.71492670010775;385.71492670010775;385.71492670010775;385.71492670010775;385.71492670010775;385.71492670010775;385.71492670010775;385.71492670010775;385.71492670010775;385.71492670010775;385.71492670010775;0.04201629990711808;396.9748921999708;FALSE;[0.728125];[-0.26666666666666666];[1];[0];[0];[11.259290600195527];['image4_2'];['ceruza.png'];;;;;;;;;;;;;;;;;;egyes;29;2024-05-05_19h43.49.031;visual_memory;2023.02.03;120.04283116110241;2024-05-05 19h44.38.806230 +0200
13;;;;;0;2;2;2;3;0;3;0;398.1309759002179;;;;;;;;;;397.473820600193;alma.png;[-0.75, 0.25];ollo.png;[0.75, 0.25];auto.png;[0.25, 0.25];papucs.png;[-0.25, 0.75];bogre.png;[-0.25, -0.25];zokni.png;[-0.75, -0.25];fogas.png;[0.25, 0.75];szemuveg.png;[0.75, 0.75];hajszarito.png;[-0.25, -0.75];fotel.png;[-0.25, 0.25];laptop.png;[0.25, -0.75];macko.png;[0.25, -0.25];ora.png;[0.75, -0.75];399.0228681000881;399.0228681000881;399.0228681000881;399.0228681000881;399.0228681000881;399.0228681000881;399.0228681000881;399.0228681000881;399.0228681000881;399.0228681000881;399.0228681000881;399.0228681000881;399.0228681000881;408.97337160026655;423.3585399002768;423.36366830021143;424.5135395000689;423.85614680033177;409.47323670005426;image12_2;ceruza.png;[0.75, -0.75];411.0142962001264;411.0142962001264;411.0142962001264;411.0142962001264;411.0142962001264;411.0142962001264;411.0142962001264;411.0142962001264;411.0142962001264;411.0142962001264;411.0142962001264;411.0142962001264;411.0142962001264;0.0410436000674963;423.3578845001757;FALSE;[-0.14375];[0.29814814814814816];[1];[0];[0];[12.342827900312841];['image9_2'];['fotel.png'];;;;;;;;;;;;;;;;;;egyes;29;2024-05-05_19h43.49.031;visual_memory;2023.02.03;120.04283116110241;2024-05-05 19h44.38.806230 +0200
13;;;;;0;2;2;2;4;0;4;0;424.5135395000689;;;;;;;;;;423.85645359987393;macko.png;[0.25, 0.25];papucs.png;[0.75, -0.25];alma.png;[0.75, 0.75];ollo.png;[0.75, -0.75];zokni.png;[-0.75, -0.25];ceruza.png;[-0.25, -0.75];fagyi.png;[0.75, 0.25];szemuveg.png;[-0.75, 0.25];ora.png;[-0.25, 0.25];vodor.png;[-0.25, 0.75];bogre.png;[0.25, 0.75];kamera.png;[-0.75, 0.75];fotel.png;[-0.75, -0.75];425.40520999999717;425.40520999999717;425.40520999999717;425.40520999999717;425.40520999999717;425.40520999999717;425.40520999999717;425.40520999999717;425.40520999999717;425.40520999999717;425.40520999999717;425.40520999999717;425.40520999999717;435.36397089995444;444.6413529003039;444.6456764000468;445.14670599997044;445.13899550028145;435.8643470001407;image12_2;kad.png;[-0.75, -0.75];437.41344640031457;437.41344640031457;437.41344640031457;437.41344640031457;437.41344640031457;437.41344640031457;437.41344640031457;437.41344640031457;437.41344640031457;437.41344640031457;437.41344640031457;437.41344640031457;437.41344640031457;0.049715499859303236;444.6407177001238;TRUE;[-0.6270833333333333];[-0.7055555555555556];[1];[0];[0];[7.226478599943221];['image12_2'];['kad.png'];;;;;;;;;;;;;;;;;;egyes;29;2024-05-05_19h43.49.031;visual_memory;2023.02.03;120.04283116110241;2024-05-05 19h44.38.806230 +0200
13;;;;;0;2;2;2;;;;;;;;;;;;;;;;;;;;;;;;;;;;;;;;;;;;;;;;;;;;;;;;;;;;;;;;;;;;;;;;;;;;;;;;;;;;;;;;;;;;;;;;;;;;;;;;;;;;;;;;;egyes;29;2024-05-05_19h43.49.031;visual_memory;2023.02.03;120.04283116110241;2024-05-05 19h44.38.806230 +0200
;;;;;;;;;;;;;;;;;;;;;;;;;;;;;;;;;;;;;;;;;;;;;;;;;;;;;;;;;;;;;;;;;;;;;;;;;;;;;;;;;;;;;;;;;;;;;;;;;;;;;;;445.1390936002135;446.646639500279;0.005377700086683035;460.87998560024425;[0.05];[0.005555555555555556];[1];[0];[0];[14.232786700129509];egyes;29;2024-05-05_19h43.49.031;visual_memory;2023.02.03;120.04283116110241;2024-05-05 19h44.38.806230 +0200
;;;;;;;;;;;;;;;0.0305651999078691;0.02165520004928112;[0.25729166666666664];[-0.49074074074074076];[1];[0];[0];[24.450233600102365];;;;;;;;;;;;;;;;;;;;;;;;;;;;;;;;;;;;;;;;;;;;;;;;;;;;;;;;;;;;;;;;;;;;;;;;;;;;;;;;;;;;;;;;;;;harmas;52;2024-05-05_20h03.46.078;visual_memory;2023.02.03;120.1631332570502;2024-05-05 20h04.11.282057 +0200
;;;;;;;;;;;;;97.41104769986123;;;;;;;;;;97.111776500009;ora.png;[0.75, -0.25];szemuveg.png;[0.25, 0.25];letra.png;[-0.25, -0.75];auto.png;[-0.75, -0.75];kamera.png;[-0.75, 0.75];blank.png;[2, 2];blank.png;[2, 2];blank.png;[2, 2];blank.png;[2, 2];blank.png;[2, 2];blank.png;[2, 2];blank.png;[2, 2];blank.png;[2, 2];97.41104769986123;97.41104769986123;97.41104769986123;97.41104769986123;97.41104769986123;97.41104769986123;97.41104769986123;97.41104769986123;97.41104769986123;97.41104769986123;97.41104769986123;97.41104769986123;97.41104769986123;107.10279719997197;107.10281609976664;107.11091039981693;107.88580260006711;107.60323749994859;107.60325179994106;image4_2;laptop.png;[-0.75, 0.75];109.12766940006986;109.12766940006986;109.12766940006986;109.12766940006986;109.12766940006986;109.12766940006986;109.12766940006986;109.12766940006986;109.12766940006986;109.12766940006986;109.12766940006986;109.12766940006986;109.12766940006986;0.02508950000628829;111.1975034000352;TRUE;[-0.75625];[0.6925925925925925];[1];[0];[0];[2.0690510999411345];['image4_2'];['laptop.png'];111.19818389974535;111.20251449989155;113.19503309996799;113.20253879996017;113.19507019966841;113.20253879996017;152.11927379993722;;;;;;;;;;;harmas;52;2024-05-05_20h03.46.078;visual_memory;2023.02.03;120.1631332570502;2024-05-05 20h04.11.282057 +0200
5;;;;;0;0;0;0;0;0;0;0;152.41807359969243;;;;;;;;;;152.12726019974798;bogre.png;[-0.75, -0.75];szemuveg.png;[-0.75, 0.75];letra.png;[-0.25, 0.25];fagyi.png;[-0.75, -0.25];fogas.png;[0.25, 0.75];blank.png;[2, 2];blank.png;[2, 2];blank.png;[2, 2];blank.png;[2, 2];blank.png;[2, 2];blank.png;[2, 2];blank.png;[2, 2];blank.png;[2, 2];152.41807359969243;152.41807359969243;152.41807359969243;152.41807359969243;152.41807359969243;152.41807359969243;152.41807359969243;152.41807359969243;152.41807359969243;152.41807359969243;152.41807359969243;152.41807359969243;152.41807359969243;162.11808189982548;166.37111399974674;166.37543499981984;167.24236160004511;166.86833359999582;162.61825460009277;image4_2;vodor.png;[0.25, 0.75];164.14274229994044;164.14274229994044;164.14274229994044;164.14274229994044;164.14274229994044;164.14274229994044;164.14274229994044;164.14274229994044;164.14274229994044;164.14274229994044;164.14274229994044;164.14274229994044;164.14274229994044;0.024803000036627054;166.37005219981074;TRUE;[0.2947916666666667];[0.7111111111111111];[1];[0];[0];[2.2266043997369707];['image4_2'];['vodor.png'];;;;;;;;;;;;;;;;;;harmas;52;2024-05-05_20h03.46.078;visual_memory;2023.02.03;120.1631332570502;2024-05-05 20h04.11.282057 +0200
5;;;;;0;0;0;0;1;0;1;0;167.24236160004511;;;;;;;;;;166.86864600004628;papucs.png;[-0.25, -0.75];kamera.png;[-0.25, 0.25];esernyo.png;[0.25, 0.25];hajszarito.png;[0.75, 0.75];alma.png;[-0.75, -0.25];blank.png;[2, 2];blank.png;[2, 2];blank.png;[2, 2];blank.png;[2, 2];blank.png;[2, 2];blank.png;[2, 2];blank.png;[2, 2];blank.png;[2, 2];168.39184049982578;168.39184049982578;168.39184049982578;168.39184049982578;168.39184049982578;168.39184049982578;168.39184049982578;168.39184049982578;168.39184049982578;168.39184049982578;168.39184049982578;168.39184049982578;168.39184049982578;178.3675902998075;183.78728589974344;183.79163810005412;184.5670650997199;184.28465209994465;178.86798809980974;image4_2;ora.png;[-0.75, -0.25];180.38391020009294;180.38391020009294;180.38391020009294;180.38391020009294;180.38391020009294;180.38391020009294;180.38391020009294;180.38391020009294;180.38391020009294;180.38391020009294;180.38391020009294;180.38391020009294;180.38391020009294;0.016448500100523233;183.78641439974308;FALSE;[0.21875];[0.20555555555555555];[1];[0];[0];[3.40158830024302];['image2_2'];['esernyo.png'];;;;;;;;;;;;;;;;;;harmas;52;2024-05-05_20h03.46.078;visual_memory;2023.02.03;120.1631332570502;2024-05-05 20h04.11.282057 +0200
5;;;;;0;0;0;0;2;0;2;0;184.5670650997199;;;;;;;;;;184.2849639998749;papucs.png;[-0.25, 0.25];ollo.png;[0.75, -0.25];zokni.png;[-0.25, -0.75];kad.png;[0.75, 0.75];ora.png;[-0.25, 0.75];blank.png;[2, 2];blank.png;[2, 2];blank.png;[2, 2];blank.png;[2, 2];blank.png;[2, 2];blank.png;[2, 2];blank.png;[2, 2];blank.png;[2, 2];185.80795529996976;185.80795529996976;185.80795529996976;185.80795529996976;185.80795529996976;185.80795529996976;185.80795529996976;185.80795529996976;185.80795529996976;185.80795529996976;185.80795529996976;185.80795529996976;185.80795529996976;195.78415550012141;199.71959659969434;199.72483150009066;200.5915479999967;200.21729120006785;196.2840215996839;image4_2;esernyo.png;[-0.25, 0.75];197.80028019985184;197.80028019985184;197.80028019985184;197.80028019985184;197.80028019985184;197.80028019985184;197.80028019985184;197.80028019985184;197.80028019985184;197.80028019985184;197.80028019985184;197.80028019985184;197.80028019985184;0.016251500230282545;199.71889369981363;TRUE;[-0.32708333333333334];[0.774074074074074];[1];[0];[0];[1.917914199642837];['image4_2'];['esernyo.png'];;;;;;;;;;;;;;;;;;harmas;52;2024-05-05_20h03.46.078;visual_memory;2023.02.03;120.1631332570502;2024-05-05 20h04.11.282057 +0200
5;;;;;0;0;0;0;3;0;3;0;200.5915479999967;;;;;;;;;;200.21760449977592;kad.png;[0.25, 0.25];kamera.png;[-0.25, 0.75];ora.png;[0.25, -0.25];macko.png;[0.75, -0.75];fotel.png;[-0.75, 0.25];blank.png;[2, 2];blank.png;[2, 2];blank.png;[2, 2];blank.png;[2, 2];blank.png;[2, 2];blank.png;[2, 2];blank.png;[2, 2];blank.png;[2, 2];201.74166300008073;201.74166300008073;201.74166300008073;201.74166300008073;201.74166300008073;201.74166300008073;201.74166300008073;201.74166300008073;201.74166300008073;201.74166300008073;201.74166300008073;201.74166300008073;201.74166300008073;211.72524929977953;218.0524299996905;218.0575850000605;218.8328049997799;218.55027809971943;212.22542909998447;image4_2;vodor.png;[-0.75, 0.25];213.74121079966426;213.74121079966426;213.74121079966426;213.74121079966426;213.74121079966426;213.74121079966426;213.74121079966426;213.74121079966426;213.74121079966426;213.74121079966426;213.74121079966426;213.74121079966426;213.74121079966426;0.016090099699795246;218.05178469978273;FALSE;[-0.24166666666666667];[0.6574074074074074];[1];[0];[0];[4.309881300199777];['image1_2'];['kamera.png'];;;;;;;;;;;;;;;;;;harmas;52;2024-05-05_20h03.46.078;visual_memory;2023.02.03;120.1631332570502;2024-05-05 20h04.11.282057 +0200
5;;;;;0;0;0;0;4;0;4;0;218.8328049997799;;;;;;;;;;218.5505896001123;hajszarito.png;[-0.75, -0.25];papucs.png;[0.25, -0.75];laptop.png;[-0.25, -0.25];kad.png;[0.75, -0.25];alma.png;[0.25, 0.25];blank.png;[2, 2];blank.png;[2, 2];blank.png;[2, 2];blank.png;[2, 2];blank.png;[2, 2];blank.png;[2, 2];blank.png;[2, 2];blank.png;[2, 2];220.07452799985185;220.07452799985185;220.07452799985185;220.07452799985185;220.07452799985185;220.07452799985185;220.07452799985185;220.07452799985185;220.07452799985185;220.07452799985185;220.07452799985185;220.07452799985185;220.07452799985185;230.049593700096;236.02723769983277;236.03227049997076;236.99890469992533;236.52476669987664;230.54997099982575;image4_2;kamera.png;[0.25, 0.25];232.0662650996819;232.0662650996819;232.0662650996819;232.0662650996819;232.0662650996819;232.0662650996819;232.0662650996819;232.0662650996819;232.0662650996819;232.0662650996819;232.0662650996819;232.0662650996819;232.0662650996819;0.016800899989902973;236.0265878997743;TRUE;[0.22604166666666667];[0.2388888888888889];[1];[0];[0];[3.9596528001129627];['image4_2'];['kamera.png'];;;;;;;;;;;;;;;;;;harmas;52;2024-05-05_20h03.46.078;visual_memory;2023.02.03;120.1631332570502;2024-05-05 20h04.11.282057 +0200
5;;;;;0;0;0;0;;;;;;;;;;;;;;;;;;;;;;;;;;;;;;;;;;;;;;;;;;;;;;;;;;;;;;;;;;;;;;;;;;;;;;;;;;;;;;;;;;;;;;;;;;;;;;;;;;;;;;;;;harmas;52;2024-05-05_20h03.46.078;visual_memory;2023.02.03;120.1631332570502;2024-05-05 20h04.11.282057 +0200
9;;;;;0;1;1;1;0;0;0;0;236.99890469992533;;;;;;;;;;236.52555319992825;fagyi.png;[-0.75, 0.25];alma.png;[-0.25, 0.25];fotel.png;[-0.25, -0.75];fogas.png;[0.25, -0.75];ora.png;[0.25, -0.25];kamera.png;[0.75, 0.75];macko.png;[0.25, 0.25];esernyo.png;[-0.25, 0.75];papucs.png;[-0.75, -0.75];blank.png;[2, 2];blank.png;[2, 2];blank.png;[2, 2];blank.png;[2, 2];238.08199799992144;238.08199799992144;238.08199799992144;238.08199799992144;238.08199799992144;238.08199799992144;238.08199799992144;238.08199799992144;238.08199799992144;238.08199799992144;238.08199799992144;238.08199799992144;238.08199799992144;248.02405259991065;253.927093999926;253.93113219970837;254.9651554999873;254.42432369990274;248.52470629988238;image8_2;letra.png;[-0.75, -0.75];250.07358400011435;250.07358400011435;250.07358400011435;250.07358400011435;250.07358400011435;250.07358400011435;250.07358400011435;250.07358400011435;250.07358400011435;250.07358400011435;250.07358400011435;250.07358400011435;250.07358400011435;0.0496657001785934;253.9260782999918;FALSE;[0.8104166666666667];[0.7592592592592593];[1];[0];[0];[3.851707400288433];['image5_2'];['kamera.png'];;;;;;;;;;;;;;;;;;harmas;52;2024-05-05_20h03.46.078;visual_memory;2023.02.03;120.1631332570502;2024-05-05 20h04.11.282057 +0200
9;;;;;0;1;1;1;1;0;1;0;254.9651554999873;;;;;;;;;;254.42463420005515;alma.png;[-0.25, 0.75];auto.png;[0.25, -0.75];kad.png;[-0.75, -0.25];papucs.png;[0.25, -0.25];fogas.png;[0.75, 0.25];ora.png;[-0.75, 0.75];macko.png;[0.75, 0.75];ceruza.png;[-0.75, 0.25];letra.png;[0.25, 0.25];blank.png;[2, 2];blank.png;[2, 2];blank.png;[2, 2];blank.png;[2, 2];255.95844150008634;255.95844150008634;255.95844150008634;255.95844150008634;255.95844150008634;255.95844150008634;255.95844150008634;255.95844150008634;255.95844150008634;255.95844150008634;255.95844150008634;255.95844150008634;255.95844150008634;265.9235640997067;269.1668496998027;269.18165879976004;270.32292489986867;269.67386619979516;266.4240039996803;image8_2;ollo.png;[0.25, 0.25];267.9566228999756;267.9566228999756;267.9566228999756;267.9566228999756;267.9566228999756;267.9566228999756;267.9566228999756;267.9566228999756;267.9566228999756;267.9566228999756;267.9566228999756;267.9566228999756;267.9566228999756;0.03327130014076829;269.1662087999284;TRUE;[0.23333333333333334];[0.08148148148148149];[1];[0];[0];[1.208666100166738];['image8_2'];['ollo.png'];;;;;;;;;;;;;;;;;;harmas;52;2024-05-05_20h03.46.078;visual_memory;2023.02.03;120.1631332570502;2024-05-05 20h04.11.282057 +0200
9;;;;;0;1;1;1;2;0;2;0;270.32292489986867;;;;;;;;;;269.6741772000678;zokni.png;[-0.75, -0.25];auto.png;[-0.25, 0.25];bogre.png;[-0.25, -0.25];macko.png;[0.75, 0.25];kad.png;[0.75, -0.75];ora.png;[0.25, 0.25];ceruza.png;[-0.75, 0.25];szemuveg.png;[0.75, -0.25];ollo.png;[0.25, -0.25];blank.png;[2, 2];blank.png;[2, 2];blank.png;[2, 2];blank.png;[2, 2];271.1994853001088;271.1994853001088;271.1994853001088;271.1994853001088;271.1994853001088;271.1994853001088;271.1994853001088;271.1994853001088;271.1994853001088;271.1994853001088;271.1994853001088;271.1994853001088;271.1994853001088;281.16499069985;286.1422570999712;286.14765289984643;287.12255459977314;286.64008069969714;281.6652377997525;image8_2;fogas.png;[0.25, -0.25];283.19781389972195;283.19781389972195;283.19781389972195;283.19781389972195;283.19781389972195;283.19781389972195;283.19781389972195;283.19781389972195;283.19781389972195;283.19781389972195;283.19781389972195;283.19781389972195;283.19781389972195;0.03303779987618327;286.14160119974986;FALSE;[-0.69375];[-0.28888888888888886];[1];[0];[0];[2.9429077999666333];['image0_2'];['zokni.png'];;;;;;;;;;;;;;;;;;harmas;52;2024-05-05_20h03.46.078;visual_memory;2023.02.03;120.1631332570502;2024-05-05 20h04.11.282057 +0200
9;;;;;0;1;1;1;3;0;3;0;287.12255459977314;;;;;;;;;;286.64039039984345;macko.png;[-0.25, 0.75];szemuveg.png;[-0.75, 0.75];fogas.png;[0.75, -0.75];vodor.png;[0.75, 0.25];hajszarito.png;[-0.75, -0.25];ora.png;[0.25, -0.25];ollo.png;[0.25, 0.75];ceruza.png;[-0.75, 0.25];laptop.png;[0.75, 0.75];blank.png;[2, 2];blank.png;[2, 2];blank.png;[2, 2];blank.png;[2, 2];288.1739019998349;288.1739019998349;288.1739019998349;288.1739019998349;288.1739019998349;288.1739019998349;288.1739019998349;288.1739019998349;288.1739019998349;288.1739019998349;288.1739019998349;288.1739019998349;288.1739019998349;298.13940190011635;305.3585838996805;305.36305129993707;306.33869679970667;305.85636750003323;298.6397198000923;image8_2;kamera.png;[0.75, 0.75];300.17237069969997;300.17237069969997;300.17237069969997;300.17237069969997;300.17237069969997;300.17237069969997;300.17237069969997;300.17237069969997;300.17237069969997;300.17237069969997;300.17237069969997;300.17237069969997;300.17237069969997;0.03319399990141392;305.3578812996857;TRUE;[0.6489583333333333];[0.7129629629629629];[1];[0];[0];[5.184712500311434];['image8_2'];['kamera.png'];;;;;;;;;;;;;;;;;;harmas;52;2024-05-05_20h03.46.078;visual_memory;2023.02.03;120.1631332570502;2024-05-05 20h04.11.282057 +0200
9;;;;;0;1;1;1;4;0;4;0;306.33869679970667;;;;;;;;;;305.85667870007455;kad.png;[-0.75, -0.25];hajszarito.png;[-0.25, -0.75];kamera.png;[0.75, -0.75];laptop.png;[0.25, -0.25];alma.png;[0.25, 0.25];szemuveg.png;[-0.25, 0.75];vodor.png;[-0.25, -0.25];fotel.png;[0.75, 0.25];auto.png;[-0.75, 0.25];blank.png;[2, 2];blank.png;[2, 2];blank.png;[2, 2];blank.png;[2, 2];307.39729169989005;307.39729169989005;307.39729169989005;307.39729169989005;307.39729169989005;307.39729169989005;307.39729169989005;307.39729169989005;307.39729169989005;307.39729169989005;307.39729169989005;307.39729169989005;307.39729169989005;317.3556864000857;323.6162584996782;323.630130100064;324.8048433000222;324.122340799775;317.8560246997513;image8_2;ora.png;[-0.75, 0.25];319.3886241996661;319.3886241996661;319.3886241996661;319.3886241996661;319.3886241996661;319.3886241996661;319.3886241996661;319.3886241996661;319.3886241996661;319.3886241996661;319.3886241996661;319.3886241996661;319.3886241996661;0.033068000338971615;323.6156119997613;FALSE;[0.7989583333333333];[-0.7666666666666667];[1];[0];[0];[4.226232199929655];['image2_2'];['kamera.png'];;;;;;;;;;;;;;;;;;harmas;52;2024-05-05_20h03.46.078;visual_memory;2023.02.03;120.1631332570502;2024-05-05 20h04.11.282057 +0200
9;;;;;0;1;1;1;;;;;;;;;;;;;;;;;;;;;;;;;;;;;;;;;;;;;;;;;;;;;;;;;;;;;;;;;;;;;;;;;;;;;;;;;;;;;;;;;;;;;;;;;;;;;;;;;;;;;;;;;harmas;52;2024-05-05_20h03.46.078;visual_memory;2023.02.03;120.1631332570502;2024-05-05 20h04.11.282057 +0200
13;;;;;0;2;2;2;0;0;0;0;324.8048433000222;;;;;;;;;;324.1231324998662;ora.png;[-0.75, -0.75];papucs.png;[0.75, -0.25];hajszarito.png;[-0.25, -0.25];fagyi.png;[0.25, -0.75];letra.png;[0.75, 0.75];zokni.png;[-0.25, 0.75];fotel.png;[0.25, 0.75];alma.png;[-0.75, 0.25];auto.png;[-0.25, -0.75];kad.png;[-0.25, 0.25];vodor.png;[0.25, 0.25];szemuveg.png;[-0.75, -0.25];kamera.png;[0.75, -0.75];325.69665559986606;325.69665559986606;325.69665559986606;325.69665559986606;325.69665559986606;325.69665559986606;325.69665559986606;325.69665559986606;325.69665559986606;325.69665559986606;325.69665559986606;325.69665559986606;325.69665559986606;335.6137540997006;343.1413247999735;343.1545669999905;344.34598809992895;343.6469487999566;336.1140016997233;image12_2;laptop.png;[0.75, -0.75];337.6797854998149;337.6797854998149;337.6797854998149;337.6797854998149;337.6797854998149;337.6797854998149;337.6797854998149;337.6797854998149;337.6797854998149;337.6797854998149;337.6797854998149;337.6797854998149;337.6797854998149;0.06616439996287227;343.14031199971214;FALSE;[-0.23333333333333334];[-0.7666666666666667];[1];[0];[0];[5.459890200290829];['image8_2'];['auto.png'];;;;;;;;;;;;;;;;;;harmas;52;2024-05-05_20h03.46.078;visual_memory;2023.02.03;120.1631332570502;2024-05-05 20h04.11.282057 +0200
13;;;;;0;2;2;2;1;0;1;0;344.34598809992895;;;;;;;;;;343.64728259993717;zokni.png;[-0.75, 0.75];fotel.png;[0.75, 0.25];fogas.png;[0.75, -0.75];letra.png;[0.25, -0.25];fagyi.png;[0.25, 0.75];auto.png;[-0.25, -0.75];papucs.png;[-0.25, 0.75];bogre.png;[0.75, 0.75];vodor.png;[0.25, 0.25];kamera.png;[0.25, -0.75];szemuveg.png;[-0.75, -0.25];laptop.png;[-0.75, -0.75];ceruza.png;[-0.25, 0.25];345.1879206998274;345.1879206998274;345.1879206998274;345.1879206998274;345.1879206998274;345.1879206998274;345.1879206998274;345.1879206998274;345.1879206998274;345.1879206998274;345.1879206998274;345.1879206998274;345.1879206998274;355.13818009989336;362.63227909989655;362.63671809993684;363.7871332997456;363.12953120004386;355.6382162999362;image12_2;macko.png;[-0.25, 0.25];357.1792617999017;357.1792617999017;357.1792617999017;357.1792617999017;357.1792617999017;357.1792617999017;357.1792617999017;357.1792617999017;357.1792617999017;357.1792617999017;357.1792617999017;357.1792617999017;357.1792617999017;0.04120909981429577;362.6316172000952;FALSE;[-0.6802083333333333];[-0.6462962962962963];[1];[0];[0];[5.451678200159222];['image11_2'];['laptop.png'];;;;;;;;;;;;;;;;;;harmas;52;2024-05-05_20h03.46.078;visual_memory;2023.02.03;120.1631332570502;2024-05-05 20h04.11.282057 +0200
13;;;;;0;2;2;2;2;0;2;0;363.7871332997456;;;;;;;;;;363.12984200008214;esernyo.png;[-0.75, -0.75];ollo.png;[0.75, -0.75];fagyi.png;[-0.75, 0.25];papucs.png;[-0.25, -0.25];bogre.png;[-0.25, -0.75];fogas.png;[0.75, -0.25];vodor.png;[0.75, 0.75];alma.png;[0.25, 0.25];zokni.png;[0.25, -0.75];kad.png;[0.25, -0.25];ceruza.png;[0.75, 0.25];ora.png;[0.25, 0.75];letra.png;[-0.25, 0.25];364.67908659996465;364.67908659996465;364.67908659996465;364.67908659996465;364.67908659996465;364.67908659996465;364.67908659996465;364.67908659996465;364.67908659996465;364.67908659996465;364.67908659996465;364.67908659996465;364.67908659996465;374.62899659993127;380.1476432001218;380.153336300049;381.30329719977453;380.6457722000778;375.1293338998221;image12_2;kamera.png;[-0.25, 0.25];376.6703945999034;376.6703945999034;376.6703945999034;376.6703945999034;376.6703945999034;376.6703945999034;376.6703945999034;376.6703945999034;376.6703945999034;376.6703945999034;376.6703945999034;376.6703945999034;376.6703945999034;0.04153129970654845;380.1470139999874;FALSE;[-0.6166666666666667];[0.24814814814814815];[1];[0];[0];[3.4758750000037253];['image2_2'];['fagyi.png'];;;;;;;;;;;;;;;;;;harmas;52;2024-05-05_20h03.46.078;visual_memory;2023.02.03;120.1631332570502;2024-05-05 20h04.11.282057 +0200
13;;;;;0;2;2;2;3;0;3;0;381.30329719977453;;;;;;;;;;380.6460826997645;papucs.png;[0.75, -0.25];szemuveg.png;[0.75, 0.75];kad.png;[0.25, -0.75];macko.png;[-0.75, 0.75];hajszarito.png;[0.25, 0.75];ollo.png;[0.25, 0.25];vodor.png;[-0.75, -0.25];kamera.png;[-0.25, 0.75];ora.png;[-0.25, 0.25];auto.png;[-0.75, 0.25];alma.png;[-0.25, -0.25];laptop.png;[0.25, -0.25];esernyo.png;[-0.25, -0.75];382.1952352998778;382.1952352998778;382.1952352998778;382.1952352998778;382.1952352998778;382.1952352998778;382.1952352998778;382.1952352998778;382.1952352998778;382.1952352998778;382.1952352998778;382.1952352998778;382.1952352998778;392.15385579969734;398.86357349995524;398.87796379998326;400.02779919980094;399.37022579973564;392.6537923999131;image12_2;bogre.png;[-0.25, -0.75];394.20317059988156;394.20317059988156;394.20317059988156;394.20317059988156;394.20317059988156;394.20317059988156;394.20317059988156;394.20317059988156;394.20317059988156;394.20317059988156;394.20317059988156;394.20317059988156;394.20317059988156;0.049534599762409925;398.8629339998588;FALSE;[0.26145833333333335];[0.1925925925925926];[1];[0];[0];[4.658983999863267];['image5_2'];['ollo.png'];;;;;;;;;;;;;;;;;;harmas;52;2024-05-05_20h03.46.078;visual_memory;2023.02.03;120.1631332570502;2024-05-05 20h04.11.282057 +0200
13;;;;;0;2;2;2;4;0;4;0;400.02779919980094;;;;;;;;;;399.3705364000052;vodor.png;[0.75, -0.25];zokni.png;[-0.25, 0.75];laptop.png;[0.75, 0.25];fogas.png;[-0.25, 0.25];ora.png;[0.25, -0.75];esernyo.png;[0.75, -0.75];auto.png;[-0.75, -0.25];letra.png;[-0.75, 0.25];bogre.png;[-0.25, -0.25];macko.png;[0.25, 0.25];szemuveg.png;[-0.75, 0.75];hajszarito.png;[0.25, -0.25];fagyi.png;[-0.75, -0.75];400.91144789988175;400.91144789988175;400.91144789988175;400.91144789988175;400.91144789988175;400.91144789988175;400.91144789988175;400.91144789988175;400.91144789988175;400.91144789988175;400.91144789988175;400.91144789988175;400.91144789988175;410.87021309975535;415.41338529996574;415.41905870009214;415.9193118996918;415.91144639998674;411.36984959989786;image12_2;ceruza.png;[-0.75, -0.75];412.91064299969;412.91064299969;412.91064299969;412.91064299969;412.91064299969;412.91064299969;412.91064299969;412.91064299969;412.91064299969;412.91064299969;412.91064299969;412.91064299969;412.91064299969;0.04055979987606406;415.4127555000596;FALSE;[-0.26145833333333335];[0.7666666666666667];[1];[0];[0];[2.501447499729693];['image1_2'];['zokni.png'];;;;;;;;;;;;;;;;;;harmas;52;2024-05-05_20h03.46.078;visual_memory;2023.02.03;120.1631332570502;2024-05-05 20h04.11.282057 +0200
13;;;;;0;2;2;2;;;;;;;;;;;;;;;;;;;;;;;;;;;;;;;;;;;;;;;;;;;;;;;;;;;;;;;;;;;;;;;;;;;;;;;;;;;;;;;;;;;;;;;;;;;;;;;;;;;;;;;;;harmas;52;2024-05-05_20h03.46.078;visual_memory;2023.02.03;120.1631332570502;2024-05-05 20h04.11.282057 +0200
;;;;;;;;;;;;;;;;;;;;;;;;;;;;;;;;;;;;;;;;;;;;;;;;;;;;;;;;;;;;;;;;;;;;;;;;;;;;;;;;;;;;;;;;;;;;;;;;;;;;;;;415.9115462000482;417.4192193998024;0.0059241000562906265;419.8619351000525;[-0.26145833333333335];[0.7666666666666667];[1];[0];[0];[2.4420179002918303];harmas;52;2024-05-05_20h03.46.078;visual_memory;2023.02.03;120.1631332570502;2024-05-05 20h04.11.282057 +0200
;;;;;;;;;;;;;;;0.02913079969584942;0.020722600165754557;[-0.0020833333333333333];[-0.3814814814814815];[1];[0];[0];[25.449364999774843];;;;;;;;;;;;;;;;;;;;;;;;;;;;;;;;;;;;;;;;;;;;;;;;;;;;;;;;;;;;;;;;;;;;;;;;;;;;;;;;;;;;;;;;;;;kettes;62;2024-05-05_19h53.51.954;visual_memory;2023.02.03;119.85780018122078;2024-05-05 19h55.14.013563 +0200
;;;;;;;;;;;;;97.01824750006199;;;;;;;;;;96.71898730006069;esernyo.png;[0.25, -0.25];bogre.png;[-0.75, 0.75];auto.png;[0.25, 0.25];kamera.png;[0.75, -0.75];laptop.png;[-0.25, 0.25];blank.png;[2, 2];blank.png;[2, 2];blank.png;[2, 2];blank.png;[2, 2];blank.png;[2, 2];blank.png;[2, 2];blank.png;[2, 2];blank.png;[2, 2];97.01824750006199;97.01824750006199;97.01824750006199;97.01824750006199;97.01824750006199;97.01824750006199;97.01824750006199;97.01824750006199;97.01824750006199;97.01824750006199;97.01824750006199;97.01824750006199;97.01824750006199;106.71020919969305;106.71022949973121;106.71821009973064;107.47634269995615;107.21059609996155;107.21061090007424;image4_2;fotel.png;[-0.25, 0.25];108.72703830013052;108.72703830013052;108.72703830013052;108.72703830013052;108.72703830013052;108.72703830013052;108.72703830013052;108.72703830013052;108.72703830013052;108.72703830013052;108.72703830013052;108.72703830013052;108.72703830013052;0.017043900210410357;116.02851120010018;TRUE;[-0.23125];[0.2];[1];[0];[0];[7.30064389994368];['image4_2'];['fotel.png'];116.02918710000813;116.04301649983972;118.03483629971743;75.73553599976003;118.03487729979679;118.04287090012804;120.6439437000081;;;;;;;;;;;kettes;62;2024-05-05_19h53.51.954;visual_memory;2023.02.03;119.85780018122078;2024-05-05 19h55.14.013563 +0200
5;;;;;0;0;0;0;0;0;0;0;120.96766600012779;;;;;;;;;;120.65209749992937;ora.png;[0.75, 0.75];hajszarito.png;[-0.75, 0.25];laptop.png;[-0.25, -0.75];fotel.png;[0.75, 0.25];szemuveg.png;[0.75, -0.25];blank.png;[2, 2];blank.png;[2, 2];blank.png;[2, 2];blank.png;[2, 2];blank.png;[2, 2];blank.png;[2, 2];blank.png;[2, 2];blank.png;[2, 2];120.96766600012779;120.96766600012779;120.96766600012779;120.96766600012779;120.96766600012779;120.96766600012779;120.96766600012779;120.96766600012779;120.96766600012779;120.96766600012779;120.96766600012779;120.96766600012779;120.96766600012779;130.64296229975298;136.56186959985644;136.56705409986898;137.3421633997932;137.05969889974222;131.1431888998486;image4_2;fagyi.png;[0.75, -0.25];132.66001329990104;132.66001329990104;132.66001329990104;132.66001329990104;132.66001329990104;132.66001329990104;132.66001329990104;132.66001329990104;132.66001329990104;132.66001329990104;132.66001329990104;132.66001329990104;132.66001329990104;0.01727189961820841;136.5608569998294;TRUE;[0.7697916666666667];[-0.17222222222222222];[1];[0];[0];[3.8999305996112525];['image4_2'];['fagyi.png'];;;;;;;;;;;;;;;;;;kettes;62;2024-05-05_19h53.51.954;visual_memory;2023.02.03;119.85780018122078;2024-05-05 19h55.14.013563 +0200
5;;;;;0;0;0;0;1;0;1;0;137.3421633997932;;;;;;;;;;137.06001019990072;ollo.png;[-0.25, 0.25];letra.png;[-0.75, -0.25];laptop.png;[-0.25, 0.75];fagyi.png;[0.75, -0.75];ora.png;[0.75, 0.25];blank.png;[2, 2];blank.png;[2, 2];blank.png;[2, 2];blank.png;[2, 2];blank.png;[2, 2];blank.png;[2, 2];blank.png;[2, 2];blank.png;[2, 2];138.583883699961;138.583883699961;138.583883699961;138.583883699961;138.583883699961;138.583883699961;138.583883699961;138.583883699961;138.583883699961;138.583883699961;138.583883699961;138.583883699961;138.583883699961;148.5592183000408;152.63640449987724;152.6415601996705;153.52506479993463;153.1342464000918;149.05940190004185;image4_2;vodor.png;[0.75, 0.25];150.57501429971308;150.57501429971308;150.57501429971308;150.57501429971308;150.57501429971308;150.57501429971308;150.57501429971308;150.57501429971308;150.57501429971308;150.57501429971308;150.57501429971308;150.57501429971308;150.57501429971308;0.01593569992110133;152.635768099688;TRUE;[0.7260416666666667];[0.22407407407407406];[1];[0];[0];[2.059786000289023];['image4_2'];['vodor.png'];;;;;;;;;;;;;;;;;;kettes;62;2024-05-05_19h53.51.954;visual_memory;2023.02.03;119.85780018122078;2024-05-05 19h55.14.013563 +0200
5;;;;;0;0;0;0;2;0;2;0;153.52506479993463;;;;;;;;;;153.13455469999462;ceruza.png;[-0.75, -0.75];szemuveg.png;[0.25, -0.75];fotel.png;[0.25, 0.75];bogre.png;[-0.25, -0.75];papucs.png;[0.75, 0.25];blank.png;[2, 2];blank.png;[2, 2];blank.png;[2, 2];blank.png;[2, 2];blank.png;[2, 2];blank.png;[2, 2];blank.png;[2, 2];blank.png;[2, 2];154.65863010007888;154.65863010007888;154.65863010007888;154.65863010007888;154.65863010007888;154.65863010007888;154.65863010007888;154.65863010007888;154.65863010007888;154.65863010007888;154.65863010007888;154.65863010007888;154.65863010007888;164.63342540012673;170.5606561000459;170.56601499998942;171.34123479994014;171.058392399922;165.1337786000222;image4_2;fogas.png;[0.75, 0.25];166.6493939999491;166.6493939999491;166.6493939999491;166.6493939999491;166.6493939999491;166.6493939999491;166.6493939999491;166.6493939999491;166.6493939999491;166.6493939999491;166.6493939999491;166.6493939999491;166.6493939999491;0.016107600182294846;170.5599584998563;TRUE;[0.7614583333333333];[0.22407407407407406];[1];[0];[0];[3.9098574998788536];['image4_2'];['fogas.png'];;;;;;;;;;;;;;;;;;kettes;62;2024-05-05_19h53.51.954;visual_memory;2023.02.03;119.85780018122078;2024-05-05 19h55.14.013563 +0200
5;;;;;0;0;0;0;3;0;3;0;171.34123479994014;;;;;;;;;;171.05870359996334;fotel.png;[-0.75, -0.75];ollo.png;[0.75, -0.75];vodor.png;[-0.25, 0.75];szemuveg.png;[0.25, 0.25];hajszarito.png;[0.25, -0.25];blank.png;[2, 2];blank.png;[2, 2];blank.png;[2, 2];blank.png;[2, 2];blank.png;[2, 2];blank.png;[2, 2];blank.png;[2, 2];blank.png;[2, 2];172.58299680007622;172.58299680007622;172.58299680007622;172.58299680007622;172.58299680007622;172.58299680007622;172.58299680007622;172.58299680007622;172.58299680007622;172.58299680007622;172.58299680007622;172.58299680007622;172.58299680007622;182.55842119967565;189.22754149977118;189.2409419999458;190.01568339997903;189.7331487997435;183.05831279978156;image4_2;fagyi.png;[0.25, -0.25];184.57403069967404;184.57403069967404;184.57403069967404;184.57403069967404;184.57403069967404;184.57403069967404;184.57403069967404;184.57403069967404;184.57403069967404;184.57403069967404;184.57403069967404;184.57403069967404;184.57403069967404;0.015749499667435884;189.2269072998315;TRUE;[0.2635416666666667];[-0.22777777777777777];[1];[0];[0];[4.652191900182515];['image4_2'];['fagyi.png'];;;;;;;;;;;;;;;;;;kettes;62;2024-05-05_19h53.51.954;visual_memory;2023.02.03;119.85780018122078;2024-05-05 19h55.14.013563 +0200
5;;;;;0;0;0;0;4;0;4;0;190.01568339997903;;;;;;;;;;189.73345579998568;papucs.png;[-0.25, -0.75];hajszarito.png;[0.75, -0.75];vodor.png;[0.25, -0.25];alma.png;[0.75, -0.25];fogas.png;[0.25, 0.75];blank.png;[2, 2];blank.png;[2, 2];blank.png;[2, 2];blank.png;[2, 2];blank.png;[2, 2];blank.png;[2, 2];blank.png;[2, 2];blank.png;[2, 2];191.2484460999258;191.2484460999258;191.2484460999258;191.2484460999258;191.2484460999258;191.2484460999258;191.2484460999258;191.2484460999258;191.2484460999258;191.2484460999258;191.2484460999258;191.2484460999258;191.2484460999258;201.2242501997389;205.05061079980806;205.06553289992735;206.13194559980184;205.55778570007533;201.72433479968458;image4_2;kamera.png;[0.25, 0.75];203.2396081998013;203.2396081998013;203.2396081998013;203.2396081998013;203.2396081998013;203.2396081998013;203.2396081998013;203.2396081998013;203.2396081998013;203.2396081998013;203.2396081998013;203.2396081998013;203.2396081998013;0.015489900019019842;205.04997609974816;TRUE;[0.2635416666666667];[0.5833333333333334];[1];[0];[0];[1.8097128001973033];['image4_2'];['kamera.png'];;;;;;;;;;;;;;;;;;kettes;62;2024-05-05_19h53.51.954;visual_memory;2023.02.03;119.85780018122078;2024-05-05 19h55.14.013563 +0200
5;;;;;0;0;0;0;;;;;;;;;;;;;;;;;;;;;;;;;;;;;;;;;;;;;;;;;;;;;;;;;;;;;;;;;;;;;;;;;;;;;;;;;;;;;;;;;;;;;;;;;;;;;;;;;;;;;;;;;kettes;62;2024-05-05_19h53.51.954;visual_memory;2023.02.03;119.85780018122078;2024-05-05 19h55.14.013563 +0200
9;;;;;0;1;1;1;0;0;0;0;206.13194559980184;;;;;;;;;;205.5585747999139;ollo.png;[-0.25, 0.75];papucs.png;[-0.25, 0.25];fagyi.png;[0.75, -0.25];letra.png;[0.25, 0.75];ceruza.png;[0.25, -0.75];fotel.png;[-0.75, 0.25];kamera.png;[-0.25, -0.75];zokni.png;[-0.75, 0.75];esernyo.png;[-0.75, -0.75];blank.png;[2, 2];blank.png;[2, 2];blank.png;[2, 2];blank.png;[2, 2];207.1072152000852;207.1072152000852;207.1072152000852;207.1072152000852;207.1072152000852;207.1072152000852;207.1072152000852;207.1072152000852;207.1072152000852;207.1072152000852;207.1072152000852;207.1072152000852;207.1072152000852;217.04897829983383;223.43429009988904;223.4484183997847;224.4814456999302;223.94073450006545;217.5488404999487;image8_2;kad.png;[-0.75, -0.75];219.10686499997973;219.10686499997973;219.10686499997973;219.10686499997973;219.10686499997973;219.10686499997973;219.10686499997973;219.10686499997973;219.10686499997973;219.10686499997973;219.10686499997973;219.10686499997973;219.10686499997973;0.05804949998855591;223.4332300000824;TRUE;[-0.903125];[-0.7185185185185186];[1];[0];[0];[4.325658699963242];['image8_2'];['kad.png'];;;;;;;;;;;;;;;;;;kettes;62;2024-05-05_19h53.51.954;visual_memory;2023.02.03;119.85780018122078;2024-05-05 19h55.14.013563 +0200
9;;;;;0;1;1;1;1;0;1;0;224.4814456999302;;;;;;;;;;223.94120020000264;papucs.png;[0.75, -0.75];hajszarito.png;[0.75, 0.75];kad.png;[0.25, 0.25];vodor.png;[-0.25, -0.75];letra.png;[-0.25, 0.75];zokni.png;[0.25, -0.25];fotel.png;[-0.75, 0.25];ollo.png;[-0.25, -0.25];ceruza.png;[-0.75, 0.75];blank.png;[2, 2];blank.png;[2, 2];blank.png;[2, 2];blank.png;[2, 2];225.466204599943;225.466204599943;225.466204599943;225.466204599943;225.466204599943;225.466204599943;225.466204599943;225.466204599943;225.466204599943;225.466204599943;225.466204599943;225.466204599943;225.466204599943;235.43173700012267;241.10932789975777;241.11449800012633;242.0892674997449;241.60682570002973;235.93195830006152;image8_2;auto.png;[-0.75, 0.75];237.46460640011355;237.46460640011355;237.46460640011355;237.46460640011355;237.46460640011355;237.46460640011355;237.46460640011355;237.46460640011355;237.46460640011355;237.46460640011355;237.46460640011355;237.46460640011355;237.46460640011355;0.033080500084906816;241.1086973999627;TRUE;[-0.8197916666666667];[0.8];[1];[0];[0];[3.643302599899471];['image8_2'];['auto.png'];;;;;;;;;;;;;;;;;;kettes;62;2024-05-05_19h53.51.954;visual_memory;2023.02.03;119.85780018122078;2024-05-05 19h55.14.013563 +0200
9;;;;;0;1;1;1;2;0;2;0;242.0892674997449;;;;;;;;;;241.60713719995692;bogre.png;[-0.25, -0.75];alma.png;[-0.75, -0.75];laptop.png;[0.25, 0.75];zokni.png;[-0.25, -0.25];kad.png;[0.25, -0.25];auto.png;[0.25, -0.75];vodor.png;[0.75, 0.75];papucs.png;[0.75, -0.75];ceruza.png;[-0.75, 0.75];blank.png;[2, 2];blank.png;[2, 2];blank.png;[2, 2];blank.png;[2, 2];243.14010889967903;243.14010889967903;243.14010889967903;243.14010889967903;243.14010889967903;243.14010889967903;243.14010889967903;243.14010889967903;243.14010889967903;243.14010889967903;243.14010889967903;243.14010889967903;243.14010889967903;253.11500669969246;257.14145200001076;257.147000500001;258.288820900023;257.6397909997031;253.61489580012858;image8_2;fogas.png;[-0.75, 0.75];255.14668399980292;255.14668399980292;255.14668399980292;255.14668399980292;255.14668399980292;255.14668399980292;255.14668399980292;255.14668399980292;255.14668399980292;255.14668399980292;255.14668399980292;255.14668399980292;255.14668399980292;0.031901400070637465;257.1408126000315;TRUE;[-0.6822916666666666];[0.812962962962963];[1];[0];[0];[1.9932979997247458];['image8_2'];['fogas.png'];;;;;;;;;;;;;;;;;;kettes;62;2024-05-05_19h53.51.954;visual_memory;2023.02.03;119.85780018122078;2024-05-05 19h55.14.013563 +0200
9;;;;;0;1;1;1;3;0;3;0;258.288820900023;;;;;;;;;;257.64010479999706;hajszarito.png;[-0.75, 0.25];auto.png;[-0.75, -0.75];fagyi.png;[-0.25, -0.75];papucs.png;[0.25, 0.75];laptop.png;[0.25, -0.25];zokni.png;[0.75, 0.75];ora.png;[-0.25, 0.25];szemuveg.png;[-0.25, 0.75];letra.png;[0.25, 0.25];blank.png;[2, 2];blank.png;[2, 2];blank.png;[2, 2];blank.png;[2, 2];259.173831500113;259.173831500113;259.173831500113;259.173831500113;259.173831500113;259.173831500113;259.173831500113;259.173831500113;259.173831500113;259.173831500113;259.173831500113;259.173831500113;259.173831500113;269.1389700998552;276.96583120012656;276.97124599991366;277.9382532997988;277.46417870000005;269.6394603997469;image8_2;ollo.png;[0.25, 0.25];271.17198659991845;271.17198659991845;271.17198659991845;271.17198659991845;271.17198659991845;271.17198659991845;271.17198659991845;271.17198659991845;271.17198659991845;271.17198659991845;271.17198659991845;271.17198659991845;271.17198659991845;0.03323799977079034;276.9651931999251;FALSE;[-0.27708333333333335];[0.22592592592592592];[1];[0];[0];[5.792447899933904];['image6_2'];['ora.png'];;;;;;;;;;;;;;;;;;kettes;62;2024-05-05_19h53.51.954;visual_memory;2023.02.03;119.85780018122078;2024-05-05 19h55.14.013563 +0200
9;;;;;0;1;1;1;4;0;4;0;277.9382532997988;;;;;;;;;;277.4644913999364;auto.png;[-0.25, 0.75];letra.png;[-0.75, 0.25];ceruza.png;[0.75, -0.75];kad.png;[0.75, -0.25];esernyo.png;[-0.75, -0.25];zokni.png;[0.25, 0.25];kamera.png;[0.75, 0.75];fotel.png;[0.25, 0.75];alma.png;[-0.25, -0.75];blank.png;[2, 2];blank.png;[2, 2];blank.png;[2, 2];blank.png;[2, 2];278.9982933998108;278.9982933998108;278.9982933998108;278.9982933998108;278.9982933998108;278.9982933998108;278.9982933998108;278.9982933998108;278.9982933998108;278.9982933998108;278.9982933998108;278.9982933998108;278.9982933998108;288.9637319999747;299.78218310000375;299.7963465997018;300.962490899954;300.288404900115;289.46376339998096;image8_2;papucs.png;[-0.25, -0.75];290.9965924997814;290.9965924997814;290.9965924997814;290.9965924997814;290.9965924997814;290.9965924997814;290.9965924997814;290.9965924997814;290.9965924997814;290.9965924997814;290.9965924997814;290.9965924997814;290.9965924997814;0.03298929985612631;299.78153449995443;FALSE;[-0.6927083333333334];[-0.17592592592592593];[1];[0];[0];[8.784145599696785];['image4_2'];['esernyo.png'];;;;;;;;;;;;;;;;;;kettes;62;2024-05-05_19h53.51.954;visual_memory;2023.02.03;119.85780018122078;2024-05-05 19h55.14.013563 +0200
9;;;;;0;1;1;1;;;;;;;;;;;;;;;;;;;;;;;;;;;;;;;;;;;;;;;;;;;;;;;;;;;;;;;;;;;;;;;;;;;;;;;;;;;;;;;;;;;;;;;;;;;;;;;;;;;;;;;;;kettes;62;2024-05-05_19h53.51.954;visual_memory;2023.02.03;119.85780018122078;2024-05-05 19h55.14.013563 +0200
13;;;;;0;2;2;2;0;0;0;0;300.962490899954;;;;;;;;;;300.2891811998561;kad.png;[-0.75, -0.75];fogas.png;[0.75, 0.25];papucs.png;[-0.25, -0.75];fagyi.png;[0.25, 0.25];szemuveg.png;[0.75, 0.75];vodor.png;[0.75, -0.75];kamera.png;[-0.25, 0.25];laptop.png;[-0.25, -0.25];bogre.png;[0.25, -0.25];esernyo.png;[-0.75, 0.75];zokni.png;[0.25, -0.75];letra.png;[0.25, 0.75];macko.png;[-0.75, -0.25];301.8546150997281;301.8546150997281;301.8546150997281;301.8546150997281;301.8546150997281;301.8546150997281;301.8546150997281;301.8546150997281;301.8546150997281;301.8546150997281;301.8546150997281;301.8546150997281;301.8546150997281;311.77990239998326;319.4490152997896;319.4530516997911;320.603820099961;319.9464409998618;312.27994629973546;image12_2;auto.png;[-0.75, -0.25];313.8459616997279;313.8459616997279;313.8459616997279;313.8459616997279;313.8459616997279;313.8459616997279;313.8459616997279;313.8459616997279;313.8459616997279;313.8459616997279;313.8459616997279;313.8459616997279;313.8459616997279;0.06627399986609817;319.44800730003044;FALSE;[-0.23333333333333334];[0.1537037037037037];[1];[0];[0];[5.601283899974078];['image6_2'];['kamera.png'];;;;;;;;;;;;;;;;;;kettes;62;2024-05-05_19h53.51.954;visual_memory;2023.02.03;119.85780018122078;2024-05-05 19h55.14.013563 +0200
13;;;;;0;2;2;2;1;0;1;0;320.603820099961;;;;;;;;;;319.9469301998615;fotel.png;[-0.25, 0.25];fagyi.png;[-0.75, 0.25];ceruza.png;[0.25, 0.25];papucs.png;[-0.25, 0.75];laptop.png;[0.75, -0.75];letra.png;[0.75, -0.25];macko.png;[-0.25, -0.75];kad.png;[-0.75, 0.75];bogre.png;[-0.75, -0.75];ora.png;[0.25, -0.75];auto.png;[0.75, 0.25];ollo.png;[0.25, 0.75];esernyo.png;[-0.75, -0.25];321.49572229990736;321.49572229990736;321.49572229990736;321.49572229990736;321.49572229990736;321.49572229990736;321.49572229990736;321.49572229990736;321.49572229990736;321.49572229990736;321.49572229990736;321.49572229990736;321.49572229990736;331.44586669979617;335.1999606001191;335.21201749984175;336.5950179998763;335.7042511999607;331.94606189988554;image12_2;fogas.png;[-0.75, -0.25];333.49537689983845;333.49537689983845;333.49537689983845;333.49537689983845;333.49537689983845;333.49537689983845;333.49537689983845;333.49537689983845;333.49537689983845;333.49537689983845;333.49537689983845;333.49537689983845;333.49537689983845;0.04972869995981455;335.1993045001291;TRUE;[-0.7427083333333333];[-0.3574074074074074];[1];[0];[0];[1.70308250002563];['image12_2'];['fogas.png'];;;;;;;;;;;;;;;;;;kettes;62;2024-05-05_19h53.51.954;visual_memory;2023.02.03;119.85780018122078;2024-05-05 19h55.14.013563 +0200
13;;;;;0;2;2;2;2;0;2;0;336.5950179998763;;;;;;;;;;335.7045678999275;vodor.png;[0.75, -0.25];fotel.png;[0.75, 0.75];alma.png;[0.25, -0.25];kad.png;[-0.25, 0.25];esernyo.png;[-0.75, 0.75];kamera.png;[-0.75, 0.25];zokni.png;[-0.25, -0.25];bogre.png;[0.75, 0.25];ora.png;[0.75, -0.75];auto.png;[-0.25, -0.75];letra.png;[-0.25, 0.75];fogas.png;[0.25, -0.75];macko.png;[-0.75, -0.25];337.24531899997965;337.24531899997965;337.24531899997965;337.24531899997965;337.24531899997965;337.24531899997965;337.24531899997965;337.24531899997965;337.24531899997965;337.24531899997965;337.24531899997965;337.24531899997965;337.24531899997965;347.2038650996983;350.52291679987684;350.5281293997541;351.9279148001224;351.0203756997362;347.70385859999806;image12_2;szemuveg.png;[-0.75, -0.25];349.2448017997667;349.2448017997667;349.2448017997667;349.2448017997667;349.2448017997667;349.2448017997667;349.2448017997667;349.2448017997667;349.2448017997667;349.2448017997667;349.2448017997667;349.2448017997667;349.2448017997667;0.04106379998847842;350.52228489983827;TRUE;[-0.696875];[-0.17037037037037037];[1];[0];[0];[1.276843999978155];['image12_2'];['szemuveg.png'];;;;;;;;;;;;;;;;;;kettes;62;2024-05-05_19h53.51.954;visual_memory;2023.02.03;119.85780018122078;2024-05-05 19h55.14.013563 +0200
13;;;;;0;2;2;2;3;0;3;0;351.9279148001224;;;;;;;;;;351.0206854999997;kamera.png;[-0.75, 0.25];fogas.png;[0.25, 0.75];alma.png;[-0.25, 0.25];fotel.png;[0.25, -0.25];zokni.png;[-0.75, 0.75];esernyo.png;[0.75, -0.75];bogre.png;[0.75, 0.25];hajszarito.png;[0.75, -0.25];papucs.png;[-0.25, -0.75];macko.png;[0.25, 0.25];auto.png;[0.25, -0.75];szemuveg.png;[-0.75, -0.25];laptop.png;[-0.25, -0.25];352.56994309974834;352.56994309974834;352.56994309974834;352.56994309974834;352.56994309974834;352.56994309974834;352.56994309974834;352.56994309974834;352.56994309974834;352.56994309974834;352.56994309974834;352.56994309974834;352.56994309974834;362.5288665997796;369.05562519980595;369.0693613998592;370.21912059979513;369.5617331000976;363.0285660000518;image12_2;fagyi.png;[-0.25, -0.25];364.5773070999421;364.5773070999421;364.5773070999421;364.5773070999421;364.5773070999421;364.5773070999421;364.5773070999421;364.5773070999421;364.5773070999421;364.5773070999421;364.5773070999421;364.5773070999421;364.5773070999421;-0.000973100308328867;369.0549967996776;FALSE;[-0.7875];[-0.2037037037037037];[1];[0];[0];[4.526215699966997];['image11_2'];['szemuveg.png'];;;;;;;;;;;;;;;;;;kettes;62;2024-05-05_19h53.51.954;visual_memory;2023.02.03;119.85780018122078;2024-05-05 19h55.14.013563 +0200
13;;;;;0;2;2;2;4;0;4;0;370.21912059979513;;;;;;;;;;369.5620587999001;papucs.png;[0.25, 0.25];esernyo.png;[-0.25, 0.75];ollo.png;[0.25, 0.75];fagyi.png;[-0.75, -0.75];szemuveg.png;[0.25, -0.75];ceruza.png;[0.75, -0.75];vodor.png;[-0.75, 0.25];fogas.png;[0.75, -0.25];laptop.png;[-0.75, 0.75];bogre.png;[0.25, -0.25];kad.png;[-0.25, -0.75];zokni.png;[-0.75, -0.25];alma.png;[0.75, 0.75];371.10274109989405;371.10274109989405;371.10274109989405;371.10274109989405;371.10274109989405;371.10274109989405;371.10274109989405;371.10274109989405;371.10274109989405;371.10274109989405;371.10274109989405;371.10274109989405;371.10274109989405;381.0615829997696;385.1054565999657;385.10988530004397;385.6106436001137;385.60284719988704;381.5614562998526;image12_2;fotel.png;[0.75, 0.75];383.1108148996718;383.1108148996718;383.1108148996718;383.1108148996718;383.1108148996718;383.1108148996718;383.1108148996718;383.1108148996718;383.1108148996718;383.1108148996718;383.1108148996718;383.1108148996718;383.1108148996718;-0.0005323998630046844;385.10480650002137;FALSE;[0.7739583333333333];[-0.2351851851851852];[1];[0];[0];[2.0427231998182833];['image7_2'];['fogas.png'];;;;;;;;;;;;;;;;;;kettes;62;2024-05-05_19h53.51.954;visual_memory;2023.02.03;119.85780018122078;2024-05-05 19h55.14.013563 +0200
13;;;;;0;2;2;2;;;;;;;;;;;;;;;;;;;;;;;;;;;;;;;;;;;;;;;;;;;;;;;;;;;;;;;;;;;;;;;;;;;;;;;;;;;;;;;;;;;;;;;;;;;;;;;;;;;;;;;;;kettes;62;2024-05-05_19h53.51.954;visual_memory;2023.02.03;119.85780018122078;2024-05-05 19h55.14.013563 +0200
;;;;;;;;;;;;;;;;;;;;;;;;;;;;;;;;;;;;;;;;;;;;;;;;;;;;;;;;;;;;;;;;;;;;;;;;;;;;;;;;;;;;;;;;;;;;;;;;;;;;;;;385.6029483000748;387.1107526998967;0.005473400000482798;401.57702729990706;[0.7739583333333333];[-0.2351851851851852];[1];[0];[0];[14.46559810033068];kettes;62;2024-05-05_19h53.51.954;visual_memory;2023.02.03;119.85780018122078;2024-05-05 19h55.14.013563 +0200
;;;;;;;;;;;;;;;0.04855680000036955;0.022139400243759155;[0.14791666666666667];[-0.12777777777777777];[1];[0];[0];[1.2616272000595927];;;;;;;;;;;;;;;;;;;;;;;;;;;;;;;;;;;;;;;;;;;;;;;;;;;;;;;;;;;;;;;;;;;;;;;;;;;;;;;;;;;;;;;;;;;negyes;23;2024-05-05_20h56.16.845;visual_memory;2023.02.03;59.65626070305012;2024-05-05 20h56.28.954179 +0200
;;;;;;;;;;;;;65.61382410023361;;;;;;;;;;65.33047960000113;vodor.png;[-0.25, -0.25];macko.png;[0.75, 0.25];esernyo.png;[0.25, -0.25];papucs.png;[0.75, 0.75];hajszarito.png;[-0.75, -0.25];blank.png;[2, 2];blank.png;[2, 2];blank.png;[2, 2];blank.png;[2, 2];blank.png;[2, 2];blank.png;[2, 2];blank.png;[2, 2];blank.png;[2, 2];65.61382410023361;65.61382410023361;65.61382410023361;65.61382410023361;65.61382410023361;65.61382410023361;65.61382410023361;65.61382410023361;65.61382410023361;65.61382410023361;65.61382410023361;65.61382410023361;65.61382410023361;75.32408320019022;75.32409700006247;75.34023700002581;76.04095409996808;75.82468510000035;75.82469530031085;image4_2;zokni.png;[-0.75, -0.25];77.34232950024307;77.34232950024307;77.34232950024307;77.34232950024307;77.34232950024307;77.34232950024307;77.34232950024307;77.34232950024307;77.34232950024307;77.34232950024307;77.34232950024307;77.34232950024307;77.34232950024307;0.018344399984925985;78.144741400145;TRUE;[-0.6791666666666667];[-0.2574074074074074];[1];[0];[0];[0.8018566002137959];['image4_2'];['zokni.png'];78.14514769986272;78.15996740013361;80.14540759986266;80.16163079999387;80.14543620031327;80.16163079999387;83.29920870019123;;;;;;;;;;;negyes;23;2024-05-05_20h56.16.845;visual_memory;2023.02.03;59.65626070305012;2024-05-05 20h56.28.954179 +0200
5;;;;;0;0;0;0;0;0;0;0;83.53194160014391;;;;;;;;;;83.30530830007046;macko.png;[-0.25, 0.25];ollo.png;[0.25, 0.75];letra.png;[0.75, 0.25];bogre.png;[0.75, -0.75];vodor.png;[0.25, 0.25];blank.png;[2, 2];blank.png;[2, 2];blank.png;[2, 2];blank.png;[2, 2];blank.png;[2, 2];blank.png;[2, 2];blank.png;[2, 2];blank.png;[2, 2];83.53194160014391;83.53194160014391;83.53194160014391;83.53194160014391;83.53194160014391;83.53194160014391;83.53194160014391;83.53194160014391;83.53194160014391;83.53194160014391;83.53194160014391;83.53194160014391;83.53194160014391;93.29201069986448;99.28256729990244;99.29743420006707;99.99790990026668;99.78159049991518;93.79223000025377;image4_2;papucs.png;[0.25, 0.25];95.31029239995405;95.31029239995405;95.31029239995405;95.31029239995405;95.31029239995405;95.31029239995405;95.31029239995405;95.31029239995405;95.31029239995405;95.31029239995405;95.31029239995405;95.31029239995405;95.31029239995405;0.01843689987435937;99.28191740019247;TRUE;[0.196875];[0.24259259259259258];[1];[0];[0];[3.9710639002732933];['image4_2'];['papucs.png'];;;;;;;;;;;;;;;;;;negyes;23;2024-05-05_20h56.16.845;visual_memory;2023.02.03;59.65626070305012;2024-05-05 20h56.28.954179 +0200
5;;;;;0;0;0;0;1;0;1;0;99.99790990026668;;;;;;;;;;99.78186400001869;fogas.png;[0.25, -0.25];papucs.png;[0.25, 0.75];alma.png;[0.75, 0.75];fagyi.png;[-0.75, 0.75];esernyo.png;[-0.25, 0.75];blank.png;[2, 2];blank.png;[2, 2];blank.png;[2, 2];blank.png;[2, 2];blank.png;[2, 2];blank.png;[2, 2];blank.png;[2, 2];blank.png;[2, 2];101.29953580023721;101.29953580023721;101.29953580023721;101.29953580023721;101.29953580023721;101.29953580023721;101.29953580023721;101.29953580023721;101.29953580023721;101.29953580023721;101.29953580023721;101.29953580023721;101.29953580023721;111.27666909992695;114.71496029989794;114.72931439988315;115.44594709994271;115.21352190012112;111.77664270019159;image4_2;bogre.png;[-0.25, 0.75];113.29452629992738;113.29452629992738;113.29452629992738;113.29452629992738;113.29452629992738;113.29452629992738;113.29452629992738;113.29452629992738;113.29452629992738;113.29452629992738;113.29452629992738;113.29452629992738;113.29452629992738;0.01795529993250966;114.71455290028825;TRUE;[-0.10625];[0.6759259259259259];[1];[0];[0];[1.419480700045824];['image4_2'];['bogre.png'];;;;;;;;;;;;;;;;;;negyes;23;2024-05-05_20h56.16.845;visual_memory;2023.02.03;59.65626070305012;2024-05-05 20h56.28.954179 +0200
5;;;;;0;0;0;0;2;0;2;0;115.44594709994271;;;;;;;;;;115.2137698000297;papucs.png;[0.25, 0.75];ceruza.png;[0.75, -0.75];bogre.png;[-0.25, -0.75];alma.png;[-0.75, -0.75];laptop.png;[-0.75, -0.25];blank.png;[2, 2];blank.png;[2, 2];blank.png;[2, 2];blank.png;[2, 2];blank.png;[2, 2];blank.png;[2, 2];blank.png;[2, 2];blank.png;[2, 2];116.73145209997892;116.73145209997892;116.73145209997892;116.73145209997892;116.73145209997892;116.73145209997892;116.73145209997892;116.73145209997892;116.73145209997892;116.73145209997892;116.73145209997892;116.73145209997892;116.73145209997892;126.70830309996381;129.64669260010123;129.66131660016254;130.3943203999661;130.14511690009385;127.20909300027415;image4_2;zokni.png;[-0.75, -0.25];128.72657020017505;128.72657020017505;128.72657020017505;128.72657020017505;128.72657020017505;128.72657020017505;128.72657020017505;128.72657020017505;128.72657020017505;128.72657020017505;128.72657020017505;128.72657020017505;128.72657020017505;0.018372599966824055;129.6462829001248;TRUE;[-0.865625];[-0.26666666666666666];[1];[0];[0];[0.9191506998613477];['image4_2'];['zokni.png'];;;;;;;;;;;;;;;;;;negyes;23;2024-05-05_20h56.16.845;visual_memory;2023.02.03;59.65626070305012;2024-05-05 20h56.28.954179 +0200
5;;;;;0;0;0;0;3;0;3;0;130.3943203999661;;;;;;;;;;130.14534369995818;bogre.png;[0.75, -0.25];fagyi.png;[-0.25, -0.25];ceruza.png;[0.25, 0.75];hajszarito.png;[0.25, -0.75];ollo.png;[-0.25, -0.75];blank.png;[2, 2];blank.png;[2, 2];blank.png;[2, 2];blank.png;[2, 2];blank.png;[2, 2];blank.png;[2, 2];blank.png;[2, 2];blank.png;[2, 2];131.66270880028605;131.66270880028605;131.66270880028605;131.66270880028605;131.66270880028605;131.66270880028605;131.66270880028605;131.66270880028605;131.66270880028605;131.66270880028605;131.66270880028605;131.66270880028605;131.66270880028605;141.63983630016446;145.16222500009462;145.1763124000281;145.91006640018895;145.6606890000403;142.1405715001747;image4_2;zokni.png;[-0.25, -0.75];143.65832030028105;143.65832030028105;143.65832030028105;143.65832030028105;143.65832030028105;143.65832030028105;143.65832030028105;143.65832030028105;143.65832030028105;143.65832030028105;143.65832030028105;143.65832030028105;143.65832030028105;0.018589899875223637;145.16180719994009;TRUE;[-0.12395833333333334];[-0.7703703703703704];[1];[0];[0];[1.5029269997030497];['image4_2'];['zokni.png'];;;;;;;;;;;;;;;;;;negyes;23;2024-05-05_20h56.16.845;visual_memory;2023.02.03;59.65626070305012;2024-05-05 20h56.28.954179 +0200
5;;;;;0;0;0;0;4;0;4;0;145.91006640018895;;;;;;;;;;145.66092920023948;kad.png;[0.25, 0.25];bogre.png;[-0.25, 0.75];zokni.png;[0.25, -0.25];auto.png;[0.75, -0.25];hajszarito.png;[-0.25, -0.25];blank.png;[2, 2];blank.png;[2, 2];blank.png;[2, 2];blank.png;[2, 2];blank.png;[2, 2];blank.png;[2, 2];blank.png;[2, 2];blank.png;[2, 2];147.17822219990194;147.17822219990194;147.17822219990194;147.17822219990194;147.17822219990194;147.17822219990194;147.17822219990194;147.17822219990194;147.17822219990194;147.17822219990194;147.17822219990194;147.17822219990194;147.17822219990194;157.1557442001067;162.74571989988908;162.76055000023916;163.59455989999697;163.24494979996234;157.65590170025826;image4_2;alma.png;[-0.25, -0.25];159.17387280007824;159.17387280007824;159.17387280007824;159.17387280007824;159.17387280007824;159.17387280007824;159.17387280007824;159.17387280007824;159.17387280007824;159.17387280007824;159.17387280007824;159.17387280007824;159.17387280007824;0.01822960004210472;162.74531440017745;TRUE;[-0.19791666666666666];[-0.35];[1];[0];[0];[3.5709538999944925];['image4_2'];['alma.png'];;;;;;;;;;;;;;;;;;negyes;23;2024-05-05_20h56.16.845;visual_memory;2023.02.03;59.65626070305012;2024-05-05 20h56.28.954179 +0200
5;;;;;0;0;0;0;;;;;;;;;;;;;;;;;;;;;;;;;;;;;;;;;;;;;;;;;;;;;;;;;;;;;;;;;;;;;;;;;;;;;;;;;;;;;;;;;;;;;;;;;;;;;;;;;;;;;;;;;negyes;23;2024-05-05_20h56.16.845;visual_memory;2023.02.03;59.65626070305012;2024-05-05 20h56.28.954179 +0200
9;;;;;0;1;1;1;0;0;0;0;163.59455989999697;;;;;;;;;;163.2455060002394;hajszarito.png;[-0.75, -0.25];esernyo.png;[0.75, -0.75];bogre.png;[0.25, -0.75];fotel.png;[0.75, 0.75];szemuveg.png;[-0.25, 0.25];macko.png;[-0.25, -0.75];fogas.png;[-0.75, 0.25];kad.png;[-0.75, -0.75];papucs.png;[0.25, -0.25];blank.png;[2, 2];blank.png;[2, 2];blank.png;[2, 2];blank.png;[2, 2];164.79592460021377;164.79592460021377;164.79592460021377;164.79592460021377;164.79592460021377;164.79592460021377;164.79592460021377;164.79592460021377;164.79592460021377;164.79592460021377;164.79592460021377;164.79592460021377;164.79592460021377;174.73933630017564;183.28356759995222;183.29788380023092;184.13201300008222;183.7819632999599;175.2400609999895;image8_2;kamera.png;[0.25, -0.25];176.7911837999709;176.7911837999709;176.7911837999709;176.7911837999709;176.7911837999709;176.7911837999709;176.7911837999709;176.7911837999709;176.7911837999709;176.7911837999709;176.7911837999709;176.7911837999709;176.7911837999709;0.05194070003926754;183.28291629999876;FALSE;[-0.20625];[-0.7648148148148148];[1];[0];[0];[6.491191999986768];['image5_2'];['macko.png'];;;;;;;;;;;;;;;;;;negyes;23;2024-05-05_20h56.16.845;visual_memory;2023.02.03;59.65626070305012;2024-05-05 20h56.28.954179 +0200
9;;;;;0;1;1;1;1;0;1;0;184.13201300008222;;;;;;;;;;183.78219320019707;hajszarito.png;[0.25, -0.75];ora.png;[-0.75, 0.75];kamera.png;[0.25, -0.25];zokni.png;[0.75, 0.75];bogre.png;[-0.25, 0.75];esernyo.png;[-0.25, -0.75];alma.png;[0.25, 0.25];ceruza.png;[0.25, 0.75];ollo.png;[0.75, -0.25];blank.png;[2, 2];blank.png;[2, 2];blank.png;[2, 2];blank.png;[2, 2];185.2990733999759;185.2990733999759;185.2990733999759;185.2990733999759;185.2990733999759;185.2990733999759;185.2990733999759;185.2990733999759;185.2990733999759;185.2990733999759;185.2990733999759;185.2990733999759;185.2990733999759;195.27665580017492;204.68795390008017;204.70238680019975;205.53655740013346;205.18669140012935;195.77741139987484;image8_2;laptop.png;[0.75, -0.25];197.31184010021389;197.31184010021389;197.31184010021389;197.31184010021389;197.31184010021389;197.31184010021389;197.31184010021389;197.31184010021389;197.31184010021389;197.31184010021389;197.31184010021389;197.31184010021389;197.31184010021389;0.03531349962577224;204.6875348999165;TRUE;[0.834375];[-0.2814814814814815];[1];[0];[0];[7.375073599629104];['image8_2'];['laptop.png'];;;;;;;;;;;;;;;;;;negyes;23;2024-05-05_20h56.16.845;visual_memory;2023.02.03;59.65626070305012;2024-05-05 20h56.28.954179 +0200
9;;;;;0;1;1;1;2;0;2;0;205.53655740013346;;;;;;;;;;205.18708240007982;kad.png;[0.75, -0.75];ceruza.png;[-0.25, 0.25];letra.png;[-0.25, 0.75];vodor.png;[0.25, 0.75];papucs.png;[0.75, 0.75];zokni.png;[-0.75, 0.75];alma.png;[-0.75, -0.75];hajszarito.png;[0.75, 0.25];ollo.png;[0.25, -0.75];blank.png;[2, 2];blank.png;[2, 2];blank.png;[2, 2];blank.png;[2, 2];206.70650420011953;206.70650420011953;206.70650420011953;206.70650420011953;206.70650420011953;206.70650420011953;206.70650420011953;206.70650420011953;206.70650420011953;206.70650420011953;206.70650420011953;206.70650420011953;206.70650420011953;216.68158379988745;219.83594450028613;219.85092990007252;220.7515361001715;220.33520550001413;217.18196980003268;image8_2;szemuveg.png;[0.25, -0.75];218.7160733002238;218.7160733002238;218.7160733002238;218.7160733002238;218.7160733002238;218.7160733002238;218.7160733002238;218.7160733002238;218.7160733002238;218.7160733002238;218.7160733002238;218.7160733002238;218.7160733002238;0.03460809960961342;219.8355355001986;TRUE;[0.3104166666666667];[-0.7944444444444444];[1];[0];[0];[1.1189422002062201];['image8_2'];['szemuveg.png'];;;;;;;;;;;;;;;;;;negyes;23;2024-05-05_20h56.16.845;visual_memory;2023.02.03;59.65626070305012;2024-05-05 20h56.28.954179 +0200
9;;;;;0;1;1;1;3;0;3;0;220.7515361001715;;;;;;;;;;220.33542780019343;vodor.png;[-0.25, -0.25];letra.png;[-0.25, -0.75];bogre.png;[-0.75, -0.75];papucs.png;[0.75, 0.75];zokni.png;[-0.75, 0.25];auto.png;[-0.25, 0.75];alma.png;[-0.75, -0.25];esernyo.png;[0.75, -0.75];macko.png;[0.25, -0.25];blank.png;[2, 2];blank.png;[2, 2];blank.png;[2, 2];blank.png;[2, 2];221.85309670027345;221.85309670027345;221.85309670027345;221.85309670027345;221.85309670027345;221.85309670027345;221.85309670027345;221.85309670027345;221.85309670027345;221.85309670027345;221.85309670027345;221.85309670027345;221.85309670027345;231.8297827001661;239.65632029995322;239.67014180030674;240.52113649994135;240.1551399002783;232.3303567999974;image8_2;fagyi.png;[0.25, -0.25];233.86467080004513;233.86467080004513;233.86467080004513;233.86467080004513;233.86467080004513;233.86467080004513;233.86467080004513;233.86467080004513;233.86467080004513;233.86467080004513;233.86467080004513;233.86467080004513;233.86467080004513;0.03500100038945675;239.6559081999585;TRUE;[0.37083333333333335];[-0.23148148148148148];[1];[0];[0];[5.790694199968129];['image8_2'];['fagyi.png'];;;;;;;;;;;;;;;;;;negyes;23;2024-05-05_20h56.16.845;visual_memory;2023.02.03;59.65626070305012;2024-05-05 20h56.28.954179 +0200
9;;;;;0;1;1;1;4;0;4;0;240.52113649994135;;;;;;;;;;240.15542169986293;laptop.png;[0.75, -0.25];zokni.png;[-0.75, -0.75];ceruza.png;[0.75, 0.75];bogre.png;[-0.25, 0.75];papucs.png;[0.75, -0.75];ollo.png;[-0.25, -0.25];kamera.png;[-0.25, -0.75];macko.png;[0.75, 0.25];letra.png;[0.25, -0.25];blank.png;[2, 2];blank.png;[2, 2];blank.png;[2, 2];blank.png;[2, 2];241.6889582001604;241.6889582001604;241.6889582001604;241.6889582001604;241.6889582001604;241.6889582001604;241.6889582001604;241.6889582001604;241.6889582001604;241.6889582001604;241.6889582001604;241.6889582001604;241.6889582001604;251.6495687002316;255.12147110002115;255.13575180014595;256.1868239999749;255.61991380015388;252.1500034001656;image8_2;ora.png;[0.25, -0.25];253.66864919988438;253.66864919988438;253.66864919988438;253.66864919988438;253.66864919988438;253.66864919988438;253.66864919988438;253.66864919988438;253.66864919988438;253.66864919988438;253.66864919988438;253.66864919988438;253.66864919988438;0.019232400227338076;255.1210326999426;TRUE;[0.31979166666666664];[-0.15925925925925927];[1];[0];[0];[1.4517573001794517];['image8_2'];['ora.png'];;;;;;;;;;;;;;;;;;negyes;23;2024-05-05_20h56.16.845;visual_memory;2023.02.03;59.65626070305012;2024-05-05 20h56.28.954179 +0200
9;;;;;0;1;1;1;;;;;;;;;;;;;;;;;;;;;;;;;;;;;;;;;;;;;;;;;;;;;;;;;;;;;;;;;;;;;;;;;;;;;;;;;;;;;;;;;;;;;;;;;;;;;;;;;;;;;;;;;negyes;23;2024-05-05_20h56.16.845;visual_memory;2023.02.03;59.65626070305012;2024-05-05 20h56.28.954179 +0200
13;;;;;0;2;2;2;0;0;0;0;256.1868239999749;;;;;;;;;;255.62060789996758;ollo.png;[0.75, -0.75];fagyi.png;[0.75, 0.25];alma.png;[-0.75, -0.75];macko.png;[0.25, 0.75];vodor.png;[0.25, 0.25];kamera.png;[0.75, -0.25];auto.png;[-0.75, 0.75];kad.png;[0.25, -0.25];ora.png;[0.75, 0.75];laptop.png;[-0.25, 0.25];fotel.png;[0.25, -0.75];esernyo.png;[-0.25, -0.75];szemuveg.png;[-0.25, 0.75];257.1704440000467;257.1704440000467;257.1704440000467;257.1704440000467;257.1704440000467;257.1704440000467;257.1704440000467;257.1704440000467;257.1704440000467;257.1704440000467;257.1704440000467;257.1704440000467;257.1704440000467;267.1149255000055;273.20645810011774;273.22057940019295;274.2210089000873;273.7048820001073;267.6152025000192;image12_2;bogre.png;[-0.25, 0.75];269.1828809999861;269.1828809999861;269.1828809999861;269.1828809999861;269.1828809999861;269.1828809999861;269.1828809999861;269.1828809999861;269.1828809999861;269.1828809999861;269.1828809999861;269.1828809999861;269.1828809999861;0.06804929999634624;273.2057950999588;FALSE;[-0.30416666666666664];[-0.8296296296296296];[1];[0];[0];[4.022393700201064];['image11_2'];['esernyo.png'];;;;;;;;;;;;;;;;;;negyes;23;2024-05-05_20h56.16.845;visual_memory;2023.02.03;59.65626070305012;2024-05-05 20h56.28.954179 +0200
13;;;;;0;2;2;2;1;0;1;0;274.2210089000873;;;;;;;;;;273.70510490005836;laptop.png;[-0.25, -0.75];bogre.png;[0.75, 0.75];ora.png;[-0.75, -0.25];auto.png;[-0.25, 0.25];kad.png;[0.25, -0.25];kamera.png;[-0.25, 0.75];zokni.png;[-0.25, -0.25];ollo.png;[0.25, -0.75];macko.png;[-0.75, 0.25];papucs.png;[0.75, -0.75];fotel.png;[0.75, -0.25];esernyo.png;[0.25, 0.25];alma.png;[-0.75, 0.75];275.23913390003145;275.23913390003145;275.23913390003145;275.23913390003145;275.23913390003145;275.23913390003145;275.23913390003145;275.23913390003145;275.23913390003145;275.23913390003145;275.23913390003145;275.23913390003145;275.23913390003145;285.19967900030315;288.13765580020845;288.1521943002008;289.2362277000211;288.63616270013154;285.69991509988904;image12_2;letra.png;[-0.75, 0.75];287.2341066002846;287.2341066002846;287.2341066002846;287.2341066002846;287.2341066002846;287.2341066002846;287.2341066002846;287.2341066002846;287.2341066002846;287.2341066002846;287.2341066002846;287.2341066002846;287.2341066002846;0.03453340008854866;288.13723549991846;TRUE;[-0.7427083333333333];[0.7481481481481481];[1];[0];[0];[0.9026349000632763];['image12_2'];['letra.png'];;;;;;;;;;;;;;;;;;negyes;23;2024-05-05_20h56.16.845;visual_memory;2023.02.03;59.65626070305012;2024-05-05 20h56.28.954179 +0200
13;;;;;0;2;2;2;2;0;2;0;289.2362277000211;;;;;;;;;;288.6364086000249;vodor.png;[-0.25, -0.75];fogas.png;[-0.25, 0.25];auto.png;[0.75, -0.25];fagyi.png;[0.25, -0.75];ora.png;[0.75, 0.25];zokni.png;[0.75, -0.75];letra.png;[-0.25, 0.75];papucs.png;[0.25, 0.75];esernyo.png;[-0.25, -0.25];macko.png;[0.25, -0.25];kamera.png;[0.25, 0.25];hajszarito.png;[-0.75, 0.75];ollo.png;[-0.75, -0.75];290.17065809993073;290.17065809993073;290.17065809993073;290.17065809993073;290.17065809993073;290.17065809993073;290.17065809993073;290.17065809993073;290.17065809993073;290.17065809993073;290.17065809993073;290.17065809993073;290.17065809993073;300.13189519988373;304.98717499990016;305.00234699994326;305.95310220029205;305.4867018000223;300.6315394002013;image12_2;laptop.png;[-0.75, -0.75];302.1646452001296;302.1646452001296;302.1646452001296;302.1646452001296;302.1646452001296;302.1646452001296;302.1646452001296;302.1646452001296;302.1646452001296;302.1646452001296;302.1646452001296;302.1646452001296;302.1646452001296;0.0328855998814106;304.98677089996636;TRUE;[-0.7614583333333333];[-0.7074074074074074];[1];[0];[0];[2.82157939998433];['image12_2'];['laptop.png'];;;;;;;;;;;;;;;;;;negyes;23;2024-05-05_20h56.16.845;visual_memory;2023.02.03;59.65626070305012;2024-05-05 20h56.28.954179 +0200
13;;;;;0;2;2;2;3;0;3;0;305.95310220029205;;;;;;;;;;305.48695550020784;alma.png;[-0.25, -0.75];hajszarito.png;[0.75, 0.25];bogre.png;[-0.75, -0.25];kad.png;[-0.75, -0.75];kamera.png;[0.75, -0.75];szemuveg.png;[0.75, 0.75];ora.png;[-0.25, 0.25];letra.png;[-0.25, 0.75];zokni.png;[-0.75, 0.75];auto.png;[0.25, -0.75];laptop.png;[0.75, -0.25];ceruza.png;[0.25, 0.75];macko.png;[0.25, 0.25];307.0208105999045;307.0208105999045;307.0208105999045;307.0208105999045;307.0208105999045;307.0208105999045;307.0208105999045;307.0208105999045;307.0208105999045;307.0208105999045;307.0208105999045;307.0208105999045;307.0208105999045;316.98124280013144;324.8071058001369;324.82199360011145;325.7561709000729;325.3065307000652;317.4817480999045;image12_2;fotel.png;[0.25, 0.25];319.0160602000542;319.0160602000542;319.0160602000542;319.0160602000542;319.0160602000542;319.0160602000542;319.0160602000542;319.0160602000542;319.0160602000542;319.0160602000542;319.0160602000542;319.0160602000542;319.0160602000542;0.03492350038141012;324.8066922002472;FALSE;[0.7166666666666667];[0.7055555555555556];[1];[0];[0];[5.790066500194371];['image5_2'];['szemuveg.png'];;;;;;;;;;;;;;;;;;negyes;23;2024-05-05_20h56.16.845;visual_memory;2023.02.03;59.65626070305012;2024-05-05 20h56.28.954179 +0200
13;;;;;0;2;2;2;4;0;4;0;325.7561709000729;;;;;;;;;;325.3067546002567;papucs.png;[-0.75, -0.75];ceruza.png;[0.25, -0.75];fotel.png;[0.75, 0.75];hajszarito.png;[-0.75, -0.25];auto.png;[0.75, -0.75];vodor.png;[0.75, 0.25];laptop.png;[-0.25, 0.25];kad.png;[-0.25, -0.75];kamera.png;[0.25, 0.75];ollo.png;[0.25, -0.25];zokni.png;[-0.25, 0.75];letra.png;[-0.75, 0.25];fagyi.png;[0.25, 0.25];326.8405965003185;326.8405965003185;326.8405965003185;326.8405965003185;326.8405965003185;326.8405965003185;326.8405965003185;326.8405965003185;326.8405965003185;326.8405965003185;326.8405965003185;326.8405965003185;326.8405965003185;336.8011123999022;355.3712631999515;355.38569340016693;355.88629679987207;355.8697714000009;337.30146409990266;image12_2;macko.png;[0.25, 0.25];338.83581790002063;338.83581790002063;338.83581790002063;338.83581790002063;338.83581790002063;338.83581790002063;338.83581790002063;338.83581790002063;338.83581790002063;338.83581790002063;338.83581790002063;338.83581790002063;338.83581790002063;0.03479899978265166;355.37084749992937;FALSE;[0.6729166666666667];[0.21666666666666667];[1];[0];[0];[16.534489099867642];['image5_2'];['vodor.png'];;;;;;;;;;;;;;;;;;negyes;23;2024-05-05_20h56.16.845;visual_memory;2023.02.03;59.65626070305012;2024-05-05 20h56.28.954179 +0200
13;;;;;0;2;2;2;;;;;;;;;;;;;;;;;;;;;;;;;;;;;;;;;;;;;;;;;;;;;;;;;;;;;;;;;;;;;;;;;;;;;;;;;;;;;;;;;;;;;;;;;;;;;;;;;;;;;;;;;negyes;23;2024-05-05_20h56.16.845;visual_memory;2023.02.03;59.65626070305012;2024-05-05 20h56.28.954179 +0200
;;;;;;;;;;;;;;;;;;;;;;;;;;;;;;;;;;;;;;;;;;;;;;;;;;;;;;;;;;;;;;;;;;;;;;;;;;;;;;;;;;;;;;;;;;;;;;;;;;;;;;;355.8698455998674;357.37113380013034;-6.219977512955666e-05;358.2895249999128;[0.0020833333333333333];[-0.05555555555555555];[1];[0];[0];[0.9178884997963905];negyes;23;2024-05-05_20h56.16.845;visual_memory;2023.02.03;59.65626070305012;2024-05-05 20h56.28.954179 +0200
